Folder: pyyuchen/data/XRD (part 2)

File: CPD-1F.PRN
   5.000       187
   5.500       163
   6.000       121
   6.500       134
   7.000       116
   7.500       110
   8.000        88
   8.500        98
   9.000        77
   9.500        96
  10.000        86
  10.500        67
  11.000        64
  11.500        77
  12.000        59
  12.500        53
  13.000        64
  13.500        62
  14.000        53
  14.500        65
  15.000        44
  15.500        50
  16.000        44
  16.500        34
  17.000        43
  17.500        43
  18.000        50
  18.500        47
  19.000        38
  19.500        42
  20.000        46
  20.500        39
  21.000        47
  21.500        43
  22.000        39
  22.500        34
  23.000        38
  23.500        38
  24.000        36
  24.500        33
  25.000        38
  25.500       324
  26.000        38
  26.500        32
  27.000        34
  27.500        37
  28.000       123
  28.500       144
  29.000        42
  29.500        39
  30.000        39
  30.500        53
  31.000        77
  31.500       282
  32.000       436
  32.500        70
  33.000        46
  33.500        70
  34.000       102
  34.500      4186
  35.000       231
  35.500       123
  36.000       510
  36.500       750
  37.000       106
  37.500        56
  38.000        77
  38.500        54
  39.000        38
  39.500        40
  40.000        38
  40.500        39
  41.000        31
  41.500        32
  42.000        40
  42.500        43
  43.000        62
  43.500       615
  44.000        34
  44.500        43
  45.000        42
  45.500        47
  46.000        50
  46.500        70
  47.000      3102
  47.500      1689
  48.000        73
  48.500        50
  49.000        54
  49.500        32
  50.000        46
  50.500        30
  51.000        34
  51.500        31
  52.000        32
  52.500       349
  53.000        39
  53.500        38
  54.000        39
  54.500        51
  55.000        49
  55.500        88
  56.000       252
  56.500       918
  57.000       163
  57.500      1115
  58.000        65
  58.500        49
  59.000        42
  59.500        54
  60.000        51
  60.500        49
  61.000        59
  61.500        96
  62.000        53
  62.500       153
  63.000      1584
  63.500        67
  64.000        53
  64.500        51
  65.000        49
  65.500        42
  66.000        65
  66.500       605
  67.000        86
  67.500        88
  68.000      2683
  68.500       237
  69.000       441
  69.500       100
  70.000        46
  70.500        56
  71.000        44
  71.500        38
  72.000        46
  72.500       106
  73.000        43
  73.500        47
  74.000        42
  74.500        50
  75.000        28
  75.500        36
  76.000       139
  76.500        51
  77.000       524
  77.500        84
  78.000        40
  78.500        43
  79.000        27
  79.500        30
  80.000        38
  80.500        42
  81.000        46
  81.500       118
  82.000        38
  82.500        34
  83.000        34
  83.500        36
  84.000        31
  84.500        47
  85.000        36
  85.500        38
  86.000        29
  86.500        72
  87.000        38
  87.500       219
  88.000        59
  88.500        29
  89.000       118
  89.500       216
  90.000       256
  90.500        39
  91.000        59
  91.500        79
  92.000        43
  92.500        50
  93.000        98
  93.500        33
  94.000        60
  94.500       136
  95.000        96
  95.500       265
  96.000        57
  96.500        40
  97.000        36
  97.500        39
  98.000        38
  98.500       121
  99.000       234
  99.500        43
 100.000        27
 100.500        38
 101.000        90
 101.500        75
 102.000        39
 102.500        59
 103.000       364
 103.500        64
 104.000       139
 104.500       320
 105.000        47
 105.500        59
 106.000        70
 106.500        54
 107.000        38
 107.500       127
 108.000        57
 108.500        39
 109.000        42
 109.500        40
 110.000        56
 110.500       262
 111.000       102
 111.500        50
 112.000        50
 112.500        42
 113.000       179
 113.500       134
 114.000        53
 114.500        57
 115.000        50
 115.500        65
 116.000       144
 116.500       289
 117.000       110
 117.500        50
 118.000        56
 118.500        51
 119.000        43
 119.500        46
 120.000        38
 120.500        51
 121.000        53
 121.500       275
 122.000       184
 122.500        72
 123.000        50
 123.500        39
 124.000        38
 124.500        51
 125.000        57
 125.500        50
 126.000       112
 126.500        67
 127.000        65
 127.500        60
 128.000        57
 128.500        62
 129.000        47
 129.500        47
 130.000        70
 130.500        60
 131.000        56
 131.500        50
 132.000        43
 132.500        50
 133.000        40
 133.500        56
 134.000       449
 134.500       112
 135.000        92
 135.500        56
 136.000       176
 136.500       141
 137.000        86
 137.500        57
 138.000        46
 138.500       163
 139.000        53
 139.500        75
 140.000        31
 140.500        51
 141.000        43
 141.500        49
 142.000        49
 142.500        77
 143.000       368
 143.500        70
 144.000       108
 144.500        56
 145.000        79
 145.500        62
 146.000        59
 146.500        36
 147.000        37
 147.500        39
 148.000        40
 148.500        47
 149.000        62
 149.500        67
 150.000        92

File: CPD-1G.PRN
   5.000       174
   5.500       146
   6.000       118
   6.500       118
   7.000       104
   7.500        70
   8.000        86
   8.500        92
   9.000       104
   9.500        56
  10.000        75
  10.500        70
  11.000        72
  11.500        81
  12.000        53
  12.500        47
  13.000        65
  13.500        53
  14.000        53
  14.500        47
  15.000        51
  15.500        53
  16.000        39
  16.500        38
  17.000        54
  17.500        47
  18.000        43
  18.500        34
  19.000        29
  19.500        43
  20.000        32
  20.500        44
  21.000        38
  21.500        33
  22.000        31
  22.500        32
  23.000        27
  23.500        27
  24.000        33
  24.500        30
  25.000        27
  25.500       384
  26.000        38
  26.500        28
  27.000        34
  27.500        37
  28.000       166
  28.500       196
  29.000        38
  29.500        37
  30.000        31
  30.500        37
  31.000        38
  31.500       144
  32.000       225
  32.500        43
  33.000        42
  33.500        53
  34.000        59
  34.500      2256
  35.000       201
  35.500        94
  36.000       278
  36.500       361
  37.000        51
  37.500        53
  38.000        72
  38.500        28
  39.000        39
  39.500        32
  40.000        28
  40.500        33
  41.000        42
  41.500        30
  42.000        27
  42.500        38
  43.000        51
  43.500       615
  44.000        33
  44.500        29
  45.000        29
  45.500        28
  46.000        49
  46.500        64
  47.000      5155
  47.500      1062
  48.000        59
  48.500        32
  49.000        38
  49.500        30
  50.000        33
  50.500        16
  51.000        27
  51.500        32
  52.000        27
  52.500       357
  53.000        46
  53.500        33
  54.000        25
  54.500        42
  55.000        34
  55.500       100
  56.000       302
  56.500       556
  57.000       100
  57.500      1204
  58.000        49
  58.500        53
  59.000        42
  59.500        38
  60.000        46
  60.500        32
  61.000        39
  61.500        77
  62.000        49
  62.500        81
  63.000       912
  63.500        39
  64.000        38
  64.500        33
  65.000        46
  65.500        25
  66.000        53
  66.500       501
  67.000        44
  67.500        47
  68.000      1428
  68.500       256
  69.000       309
  69.500        53
  70.000        36
  70.500        30
  71.000        29
  71.500        37
  72.000        31
  72.500        62
  73.000        34
  73.500        28
  74.000        25
  74.500        38
  75.000        30
  75.500        39
  76.000       161
  76.500        34
  77.000       331
  77.500        70
  78.000        32
  78.500        32
  79.000        32
  79.500        30
  80.000        21
  80.500        36
  81.000        39
  81.500        51
  82.000        17
  82.500        25
  83.000        31
  83.500        30
  84.000        34
  84.500        37
  85.000        28
  85.500        24
  86.000        28
  86.500        64
  87.000        51
  87.500       295
  88.000        56
  88.500        36
  89.000       108
  89.500       104
  90.000       148
  90.500        27
  91.000        38
  91.500        84
  92.000        28
  92.500        28
  93.000        67
  93.500        31
  94.000        51
  94.500       169
  95.000        47
  95.500       182
  96.000        43
  96.500        28
  97.000        25
  97.500        32
  98.000        25
  98.500       106
  99.000       136
  99.500        26
 100.000        29
 100.500        38
 101.000        70
 101.500        72
 102.000        20
 102.500        34
 103.000       201
 103.500        47
 104.000       102
 104.500       201
 105.000        32
 105.500        29
 106.000        77
 106.500        37
 107.000        24
 107.500        84
 108.000        40
 108.500        26
 109.000        30
 109.500        37
 110.000        43
 110.500       144
 111.000        92
 111.500        43
 112.000        17
 112.500        38
 113.000       259
 113.500       196
 114.000        59
 114.500        50
 115.000        29
 115.500        79
 116.000       112
 116.500       174
 117.000        65
 117.500        44
 118.000        60
 118.500        36
 119.000        27
 119.500        24
 120.000        37
 120.500        32
 121.000        30
 121.500       166
 122.000       106
 122.500        53
 123.000        33
 123.500        32
 124.000        36
 124.500        43
 125.000        47
 125.500        43
 126.000       100
 126.500        81
 127.000        56
 127.500        68
 128.000        65
 128.500        46
 129.000        38
 129.500        38
 130.000        82
 130.500        54
 131.000        77
 131.500        36
 132.000        50
 132.500        42
 133.000        40
 133.500        37
 134.000       272
 134.500        84
 135.000        81
 135.500        73
 136.000       198
 136.500       110
 137.000       106
 137.500        43
 138.000        42
 138.500       114
 139.000        40
 139.500        65
 140.000        38
 140.500        34
 141.000        34
 141.500        46
 142.000        33
 142.500        49
 143.000       176
 143.500        57
 144.000        73
 144.500        40
 145.000        56
 145.500        50
 146.000        56
 146.500        43
 147.000        39
 147.500        36
 148.000        43
 148.500        33
 149.000        39
 149.500        67
 150.000        79

File: CPD-1H.PRN
   5.000       158
   5.500       144
   6.000       134
   6.500       106
   7.000       114
   7.500       110
   8.000       102
   8.500        77
   9.000        77
   9.500        57
  10.000        64
  10.500        53
  11.000        62
  11.500        59
  12.000        64
  12.500        75
  13.000        56
  13.500        53
  14.000        40
  14.500        50
  15.000        32
  15.500        32
  16.000        51
  16.500        40
  17.000        34
  17.500        50
  18.000        38
  18.500        39
  19.000        47
  19.500        38
  20.000        38
  20.500        37
  21.000        34
  21.500        37
  22.000        33
  22.500        40
  23.000        34
  23.500        29
  24.000        32
  24.500        29
  25.000        31
  25.500       324
  26.000        38
  26.500        33
  27.000        44
  27.500        34
  28.000       132
  28.500       240
  29.000        42
  29.500        33
  30.000        28
  30.500        44
  31.000        40
  31.500       132
  32.000       282
  32.500        50
  33.000        51
  33.500        38
  34.000        60
  34.500      2381
  35.000       171
  35.500       104
  36.000       193
  36.500       432
  37.000        56
  37.500        50
  38.000        79
  38.500        23
  39.000        27
  39.500        27
  40.000        25
  40.500        26
  41.000        30
  41.500        27
  42.000        32
  42.500        31
  43.000        47
  43.500       852
  44.000        34
  44.500        32
  45.000        32
  45.500        31
  46.000        44
  46.500        75
  47.000      4542
  47.500       615
  48.000        70
  48.500        33
  49.000        23
  49.500        42
  50.000        38
  50.500        26
  51.000        23
  51.500        37
  52.000        32
  52.500       265
  53.000        46
  53.500        30
  54.000        37
  54.500        39
  55.000        50
  55.500        81
  56.000       420
  56.500       316
  57.000        96
  57.500      1135
  58.000        51
  58.500        57
  59.000        39
  59.500        31
  60.000        57
  60.500        37
  61.000        42
  61.500        82
  62.000        32
  62.500        62
  63.000       707
  63.500        53
  64.000        43
  64.500        30
  65.000        32
  65.500        34
  66.000        40
  66.500       457
  67.000        57
  67.500        54
  68.000      1505
  68.500       309
  69.000       210
  69.500        67
  70.000        37
  70.500        29
  71.000        26
  71.500        25
  72.000        32
  72.500        56
  73.000        32
  73.500        22
  74.000        29
  74.500        42
  75.000        21
  75.500        30
  76.000       187
  76.500        38
  77.000       342
  77.500        79
  78.000        38
  78.500        27
  79.000        22
  79.500        19
  80.000        24
  80.500        28
  81.000        65
  81.500        75
  82.000        22
  82.500        31
  83.000        26
  83.500        30
  84.000        23
  84.500        44
  85.000        26
  85.500        38
  86.000        31
  86.500        77
  87.000        51
  87.500       331
  88.000        51
  88.500        43
  89.000       118
  89.500        96
  90.000       182
  90.500        23
  91.000        34
  91.500        86
  92.000        31
  92.500        38
  93.000        70
  93.500        32
  94.000        62
  94.500       176
  95.000        60
  95.500       171
  96.000        38
  96.500        20
  97.000        27
  97.500        22
  98.000        25
  98.500        73
  99.000       146
  99.500        30
 100.000        32
 100.500        17
 101.000        72
 101.500        86
 102.000        26
 102.500        34
 103.000       176
 103.500        44
 104.000        65
 104.500       134
 105.000        30
 105.500        34
 106.000        82
 106.500        38
 107.000        26
 107.500        67
 108.000        46
 108.500        37
 109.000        32
 109.500        28
 110.000        26
 110.500       141
 111.000        75
 111.500        43
 112.000        25
 112.500        37
 113.000       265
 113.500       179
 114.000        54
 114.500        44
 115.000        26
 115.500        82
 116.000       110
 116.500       176
 117.000        86
 117.500        37
 118.000        72
 118.500        42
 119.000        31
 119.500        27
 120.000        28
 120.500        46
 121.000        38
 121.500       144
 122.000       108
 122.500        50
 123.000        36
 123.500        34
 124.000        32
 124.500        47
 125.000        33
 125.500        46
 126.000       129
 126.500        94
 127.000        84
 127.500        64
 128.000        57
 128.500        59
 129.000        26
 129.500        38
 130.000        67
 130.500        59
 131.000        60
 131.500        33
 132.000        37
 132.500        31
 133.000        33
 133.500        50
 134.000       237
 134.500        82
 135.000        98
 135.500        65
 136.000       184
 136.500        86
 137.000        64
 137.500        50
 138.000        43
 138.500       106
 139.000        43
 139.500        51
 140.000        31
 140.500        37
 141.000        36
 141.500        33
 142.000        51
 142.500        51
 143.000       176
 143.500        46
 144.000        75
 144.500        37
 145.000        67
 145.500        62
 146.000        79
 146.500        46
 147.000        30
 147.500        30
 148.000        42
 148.500        39
 149.000        50
 149.500        60
 150.000        86

File: CPD-3.PRN
   5.000       289
   5.500       302
   6.000       198
   6.500       193
   7.000       193
   7.500       176
   8.000       134
   8.500       136
   9.000       136
   9.500       110
  10.000       112
  10.500       100
  11.000       118
  11.500       116
  12.000       100
  12.500       110
  13.000       121
  13.500        92
  14.000       100
  14.500        98
  15.000        98
  15.500       132
  16.000       112
  16.500       106
  17.000        98
  17.500       108
  18.000       125
  18.500       134
  19.000       182
  19.500       146
  20.000       190
  20.500       222
  21.000       228
  21.500       176
  22.000       246
  22.500       240
  23.000       231
  23.500       207
  24.000       201
  24.500       171
  25.000       166
  25.500       620
  26.000       166
  26.500       136
  27.000       127
  27.500       139
  28.000       262
  28.500       219
  29.000        96
  29.500        94
  30.000        90
  30.500        82
  31.000       104
  31.500       228
  32.000       193
  32.500       104
  33.000        84
  33.500        88
  34.000       112
  34.500      1296
  35.000       345
  35.500        96
  36.000       285
  36.500       285
  37.000        94
  37.500        96
  38.000       108
  38.500        72
  39.000        67
  39.500        56
  40.000        67
  40.500        65
  41.000        56
  41.500        65
  42.000        75
  42.500        68
  43.000       116
  43.500       576
  44.000        65
  44.500        65
  45.000        59
  45.500        54
  46.000        84
  46.500        88
  47.000      3492
  47.500       864
  48.000        82
  48.500        60
  49.000        70
  49.500        62
  50.000        62
  50.500        64
  51.000        56
  51.500        70
  52.000        65
  52.500       501
  53.000        67
  53.500        62
  54.000        65
  54.500        67
  55.000        56
  55.500       108
  56.000       201
  56.500       635
  57.000       118
  57.500      1197
  58.000        72
  58.500        79
  59.000        59
  59.500        64
  60.000        75
  60.500        64
  61.000        86
  61.500        90
  62.000        53
  62.500        94
  63.000       595
  63.500        84
  64.000        59
  64.500        54
  65.000        54
  65.500        53
  66.000        84
  66.500       571
  67.000        82
  67.500        96
  68.000       870
  68.500       249
  69.000       292
  69.500        82
  70.000        50
  70.500        73
  71.000        59
  71.500        50
  72.000        57
  72.500        86
  73.000        56
  73.500        43
  74.000        54
  74.500        72
  75.000        68
  75.500        47
  76.000       187
  76.500        62
  77.000       262
  77.500        77
  78.000        51
  78.500        51
  79.000        43
  79.500        53
  80.000        38
  80.500        65
  81.000        62
  81.500        75
  82.000        62
  82.500        34
  83.000        43
  83.500        50
  84.000        39
  84.500        67
  85.000        36
  85.500        36
  86.000        47
  86.500        59
  87.000        57
  87.500       225
  88.000        47
  88.500        32
  89.000       118
  89.500       136
  90.000        96
  90.500        50
  91.000        67
  91.500        82
  92.000        34
  92.500        43
  93.000        72
  93.500        38
  94.000        67
  94.500       121
  95.000        92
  95.500       201
  96.000        34
  96.500        37
  97.000        38
  97.500        34
  98.000        40
  98.500       104
  99.000       125
  99.500        33
 100.000        32
 100.500        44
 101.000       118
 101.500        77
 102.000        40
 102.500        39
 103.000       116
 103.500        56
 104.000        82
 104.500       144
 105.000        51
 105.500        56
 106.000        64
 106.500        38
 107.000        25
 107.500        53
 108.000        50
 108.500        30
 109.000        34
 109.500        39
 110.000        53
 110.500       108
 111.000        86
 111.500        42
 112.000        38
 112.500        36
 113.000       213
 113.500       121
 114.000        72
 114.500        50
 115.000        42
 115.500        49
 116.000       148
 116.500       161
 117.000        84
 117.500        39
 118.000        67
 118.500        56
 119.000        39
 119.500        37
 120.000        37
 120.500        38
 121.000        38
 121.500       136
 122.000       134
 122.500        56
 123.000        38
 123.500        43
 124.000        33
 124.500        49
 125.000        51
 125.500        47
 126.000       123
 126.500        81
 127.000        64
 127.500        82
 128.000        67
 128.500        51
 129.000        53
 129.500        43
 130.000        72
 130.500        64
 131.000        68
 131.500        53
 132.000        51
 132.500        39
 133.000        38
 133.500        47
 134.000       182
 134.500        96
 135.000        98
 135.500        70
 136.000       198
 136.500       100
 137.000        79
 137.500        50
 138.000        53
 138.500        94
 139.000        43
 139.500        53
 140.000        39
 140.500        47
 141.000        40
 141.500        40
 142.000        53
 142.500        59
 143.000       171
 143.500        56
 144.000        53
 144.500        42
 145.000        75
 145.500        60
 146.000        72
 146.500        42
 147.000        47
 147.500        59
 148.000        47
 148.500        53
 149.000        70
 149.500        67
 150.000       121