Folder: pyyuchen/data/XRD (part 3)

File: CPD-4.PRN
   5.000       166
   5.500       151
   6.000       134
   6.500       118
   7.000       106
   7.500        96
   8.000       102
   8.500        90
   9.000        92
   9.500       100
  10.000        68
  10.500        75
  11.000        67
  11.500        67
  12.000        64
  12.500        51
  13.000        51
  13.500        50
  14.000        56
  14.500        54
  15.000        53
  15.500        42
  16.000        46
  16.500        33
  17.000        43
  17.500        47
  18.000        47
  18.500        40
  19.000        47
  19.500        57
  20.000      1944
  20.500        46
  21.000        36
  21.500        34
  22.000        36
  22.500        29
  23.000        40
  23.500        29
  24.000        29
  24.500        28
  25.000        39
  25.500       806
  26.000        50
  26.500        75
  27.000      2992
  27.500        84
  28.000        49
  28.500        47
  29.000        43
  29.500        36
  30.000       166
  30.500        31
  31.000        32
  31.500        23
  32.000        38
  32.500        32
  33.000        33
  33.500        34
  34.000        42
  34.500        44
  35.000       380
  35.500      1122
  36.000        59
  36.500        31
  37.000        50
  37.500        56
  38.000        56
  38.500       552
  39.000        37
  39.500        34
  40.000        31
  40.500       106
  41.000        26
  41.500        24
  42.000        20
  42.500        27
  43.000       723
  43.500       789
  44.000        59
  44.500        32
  45.000        25
  45.500        31
  46.000        21
  46.500        28
  47.000        23
  47.500       182
  48.000        29
  48.500        32
  49.000        12
  49.500        21
  50.000        17
  50.500        26
  51.000        29
  51.500        40
  52.000       139
  52.500       767
  53.000        90
  53.500       998
  54.000        67
  54.500        28
  55.000        37
  55.500       327
  56.000        56
  56.500        38
  57.000       222
  57.500      1944
  58.000        47
  58.500        33
  59.000        22
  59.500        40
  60.000        29
  60.500        20
  61.000        38
  61.500        98
  62.000        53
  62.500       302
  63.000       158
  63.500        20
  64.000        23
  64.500        29
  65.000        22
  65.500        21
  66.000        28
  66.500       734
  67.000        42
  67.500        57
  68.000       201
  68.500       163
  69.000        73
  69.500        21
  70.000        27
  70.500        34
  71.000        53
  71.500        12
  72.000        16
  72.500        17
  73.000        33
  73.500       110
  74.000       552
  74.500        30
  75.000        86
  75.500        62
  76.000        56
  76.500        26
  77.000       116
  77.500        88
  78.000        21
  78.500        33
  79.000        32
  79.500        26
  80.000        32
  80.500        77
  81.000       136
  81.500        25
  82.000        27
  82.500        53
  83.000        32
  83.500        32
  84.000        22
  84.500        53
  85.000        32
  85.500        17
  86.000        21
  86.500        67
  87.000        42
  87.500        38
  88.000        98
  88.500        30
  89.000       196
  89.500        75
  90.000        57
  90.500        29
  91.000        50
  91.500       102
  92.000        26
  92.500        59
  93.000        59
  93.500       166
  94.000        67
  94.500        72
  95.000        98
  95.500       141
  96.000        27
  96.500        13
  97.000        15
  97.500        27
  98.000        16
  98.500        40
  99.000        20
  99.500        15
 100.000        24
 100.500        27
 101.000       127
 101.500        75
 102.000        25
 102.500        19
 103.000        23
 103.500        37
 104.000        37
 104.500        28
 105.000        47
 105.500        43
 106.000        24
 106.500        13
 107.000        17
 107.500        24
 108.000        26
 108.500        22
 109.000        16
 109.500        28
 110.000        30
 110.500        22
 111.000        73
 111.500        44
 112.000        26
 112.500        30
 113.000        31
 113.500        50
 114.000        54
 114.500       148
 115.000        50
 115.500        22
 116.000       104
 116.500       136
 117.000        65
 117.500       108
 118.000       104
 118.500        94
 119.000       104
 119.500       327
 120.000       222
 120.500        88
 121.000        70
 121.500        51
 122.000       100
 122.500        64
 123.000        26
 123.500        23
 124.000        29
 124.500        31
 125.000        23
 125.500        20
 126.000        29
 126.500        31
 127.000        32
 127.500        65
 128.000       262
 128.500       134
 129.000        57
 129.500        51
 130.000        79
 130.500        81
 131.000        50
 131.500        31
 132.000        30
 132.500        36
 133.000        32
 133.500        37
 134.000        36
 134.500        37
 135.000       153
 135.500       100
 136.000       262
 136.500        86
 137.000        77
 137.500        49
 138.000        47
 138.500        50
 139.000        37
 139.500        50
 140.000        32
 140.500        32
 141.000        42
 141.500        28
 142.000        25
 142.500        59
 143.000        54
 143.500        65
 144.000        56
 144.500        59
 145.000        65
 145.500        67
 146.000        62
 146.500        43
 147.000        28
 147.500        31
 148.000        29
 148.500        32
 149.000        56
 149.500        86
 150.000       100

File: CPD-Y2O3.PRN
   5.000       484
   5.500       457
   6.000       357
   6.500       357
   7.000       345
   7.500       331
   8.000       285
   8.500       265
   9.000       278
   9.500       262
  10.000       237
  10.500       228
  11.000       201
  11.500       179
  12.000       169
  12.500       161
  13.000       151
  13.500       169
  14.000       156
  14.500       156
  15.000       163
  15.500       153
  16.000       112
  16.500       144
  17.000       121
  17.500       121
  18.000       118
  18.500       125
  19.000        96
  19.500       114
  20.000       144
  20.500      9196
  21.000       141
  21.500        92
  22.000       104
  22.500        81
  23.000       104
  23.500        79
  24.000       100
  24.500       108
  25.000        84
  25.500        86
  26.000        94
  26.500       100
  27.000       100
  27.500        94
  28.000       184
  28.500       353
  29.000      6006
  29.500      1108
  30.000       225
  30.500       148
  31.000       106
  31.500       201
  32.000        98
  32.500        94
  33.000       121
  33.500       384
  34.000      1043
  34.500       121
  35.000       116
  35.500       104
  36.000      2470
  36.500        92
  37.000        84
  37.500        79
  38.000       670
  38.500        75
  39.000        86
  39.500       114
  40.000      1831
  40.500        98
  41.000        65
  41.500       104
  42.000       104
  42.500        79
  43.000       110
  43.500      6707
  44.000       104
  44.500        88
  45.000        86
  45.500        84
  46.000        79
  46.500       141
  47.000      1128
  47.500       144
  48.000       272
  48.500     17609
  49.000       372
  49.500       156
  50.000       219
  50.500       118
  51.000        96
  51.500        84
  52.000        84
  52.500        90
  53.000       216
  53.500       249
  54.000       104
  54.500       110
  55.000       136
  55.500        94
  56.000       210
  56.500       213
  57.000       163
  57.500      1681
  58.000       552
  58.500       158
  59.000      2007
  59.500       156
  60.000       118
  60.500      2809
  61.000       108
  61.500       102
  62.000       823
  62.500        70
  63.000       125
  63.500       121
  64.000        90
  64.500      1324
  65.000       104
  65.500        77
  66.000       368
  66.500        59
  67.000        59
  67.500        72
  68.000        67
  68.500        59
  69.000        57
  69.500       110
  70.000       829
  70.500        96
  71.000       739
  71.500       141
  72.000       139
  72.500       712
  73.000        82
  73.500       210
  74.000       121
  74.500       104
  75.000       372
  75.500        88
  76.000       174
  76.500       123
  77.000       125
  77.500       449
  78.000       106
  78.500       784
  79.000       275
  79.500        90
  80.000       108
  80.500        92
  81.000      1288
  81.500       193
  82.000       100
  82.500       316
  83.000        86
  83.500       772
  84.000        88
  84.500       118
  85.000       812
  85.500        92
  86.000       163
  86.500        88
  87.000       171
  87.500       436
  88.000        84
  88.500        84
  89.000       104
  89.500       645
  90.000       187
  90.500       201
  91.000       870
  91.500       125
  92.000      1584
  92.500       134
  93.000       148
  93.500       590
  94.000        90
  94.500       262
  95.000       116
  95.500       368
  96.000       734
  96.500       114
  97.000       151
  97.500       127
  98.000      1474
  98.500       436
  99.000       161
  99.500       320
 100.000       104
 100.500        72
 101.000        94
 101.500       146
 102.000       299
 102.500       112
 103.000      1747
 103.500       204
 104.000       146
 104.500       285
 105.000       129
 105.500      1513
 106.000       216
 106.500       144
 107.000       213
 107.500        94
 108.000       106
 108.500        82
 109.000       102
 109.500       213
 110.000       125
 110.500       388
 111.000       436
 111.500        92
 112.000        79
 112.500        86
 113.000       166
 113.500       176
 114.000       118
 114.500      1260
 115.000       510
 115.500       112
 116.000       176
 116.500       102
 117.000       153
 117.500       184
 118.000       146
 118.500      1310
 119.000       888
 119.500       129
 120.000       376
 120.500       225
 121.000       123
 121.500       309
 122.000       259
 122.500       176
 123.000       278
 123.500       219
 124.000       184
 124.500       184
 125.000       174
 125.500       196
 126.000       187
 126.500       169
 127.000       259
 127.500       198
 128.000       216
 128.500       153
 129.000       163
 129.500       176
 130.000       112
 130.500       108
 131.000       112
 131.500       141
 132.000       852
 132.500       510
 133.000       136
 133.500       967
 134.000       204
 134.500       171
 135.000       158
 135.500       216
 136.000       441
 136.500       207
 137.000      2401
 137.500       295
 138.000       231
 138.500       204
 139.000       275
 139.500       353
 140.000       161
 140.500       484
 141.000       268
 141.500       900
 142.000       198
 142.500       484
 143.000       213
 143.500       506
 144.000       158
 144.500       275
 145.000       169
 145.500       302
 146.000       134
 146.500       176
 147.000       302
 147.500       179
 148.000       228
 148.500       148
 149.000       561
 149.500       179
 150.000       316

File: FLUORITE.PRN
   5.000       151
   5.500       132
   6.000       112
   6.500       100
   7.000        88
   7.500        86
   8.000        81
   8.500        84
   9.000        73
   9.500        75
  10.000        64
  10.500        62
  11.000        62
  11.500        50
  12.000        40
  12.500        47
  13.000        32
  13.500        50
  14.000        56
  14.500        36
  15.000        37
  15.500        23
  16.000        40
  16.500        38
  17.000        26
  17.500        31
  18.000        32
  18.500        20
  19.000        25
  19.500        32
  20.000        23
  20.500        21
  21.000        20
  21.500        19
  22.000        22
  22.500        26
  23.000        26
  23.500        22
  24.000        16
  24.500        22
  25.000        16
  25.500        38
  26.000        16
  26.500        25
  27.000        30
  27.500        29
  28.000       246
  28.500       275
  29.000        32
  29.500        27
  30.000        17
  30.500        21
  31.000        12
  31.500        16
  32.000        19
  32.500        16
  33.000        24
  33.500        20
  34.000        25
  34.500        13
  35.000        16
  35.500        26
  36.000        16
  36.500        10
  37.000        15
  37.500        19
  38.000        27
  38.500        15
  39.000        12
  39.500        12
  40.000        21
  40.500        16
  41.000        13
  41.500        17
  42.000        16
  42.500        20
  43.000        10
  43.500        22
  44.000        12
  44.500        21
  45.000        27
  45.500        30
  46.000        37
  46.500        90
  47.000     10120
  47.500        84
  48.000        38
  48.500        30
  49.000        19
  49.500        20
  50.000        21
  50.500        12
  51.000        22
  51.500        17
  52.000        19
  52.500        23
  53.000        16
  53.500        17
  54.000        20
  54.500        20
  55.000        30
  55.500       104
  56.000       462
  56.500        19
  57.000        26
  57.500        10
  58.000        25
  58.500        36
  59.000        17
  59.500        10
  60.000        13
  60.500        10
  61.000        12
  61.500        15
  62.000         1
  62.500        12
  63.000         9
  63.500        13
  64.000        12
  64.500         6
  65.000        12
  65.500         9
  66.000         4
  66.500        10
  67.000        16
  67.500        19
  68.000        10
  68.500        82
  69.000        75
  69.500        12
  70.000        13
  70.500        17
  71.000         7
  71.500         2
  72.000        10
  72.500         7
  73.000        12
  73.500        12
  74.000        10
  74.500        15
  75.000        12
  75.500        33
  76.000       342
  76.500        19
  77.000        12
  77.500        12
  78.000        24
  78.500        22
  79.000        10
  79.500        12
  80.000        12
  80.500         9
  81.000         9
  81.500        12
  82.000         7
  82.500         9
  83.000        10
  83.500        16
  84.000        10
  84.500        16
  85.000         4
  85.500        12
  86.000        15
  86.500        12
  87.000        70
  87.500       475
  88.000        37
  88.500        16
  89.000        19
  89.500        12
  90.000        13
  90.500        10
  91.000        10
  91.500        10
  92.000        10
  92.500        20
  93.000        12
  93.500        21
  94.000        59
  94.500       299
  95.000        17
  95.500        12
  96.000        10
  96.500        10
  97.000        10
  97.500        12
  98.000         9
  98.500        12
  99.000         7
  99.500         7
 100.000         4
 100.500        12
 101.000         9
 101.500         9
 102.000        12
 102.500        13
 103.000        12
 103.500        10
 104.000         7
 104.500         4
 105.000        17
 105.500        38
 106.000       112
 106.500        26
 107.000        16
 107.500         7
 108.000        12
 108.500        15
 109.000        12
 109.500        20
 110.000        16
 110.500        13
 111.000        16
 111.500        12
 112.000        22
 112.500        29
 113.000       416
 113.500       282
 114.000        21
 114.500         9
 115.000        17
 115.500        56
 116.000        33
 116.500        12
 117.000        15
 117.500        16
 118.000        15
 118.500        12
 119.000        10
 119.500         9
 120.000        12
 120.500        17
 121.000        12
 121.500        21
 122.000         7
 122.500        15
 123.000        16
 123.500        12
 124.000        16
 124.500        16
 125.000        21
 125.500        26
 126.000       171
 126.500       121
 127.000        72
 127.500        26
 128.000        17
 128.500        16
 129.000        20
 129.500        12
 130.000        10
 130.500        13
 131.000        22
 131.500        13
 132.000        16
 132.500        22
 133.000        19
 133.500        13
 134.000        21
 134.500        16
 135.000        82
 135.500        67
 136.000       118
 136.500        30
 137.000        19
 137.500        17
 138.000        23
 138.500        62
 139.000        29
 139.500        26
 140.000        21
 140.500        13
 141.000        25
 141.500        25
 142.000        17
 142.500        15
 143.000        13
 143.500        16
 144.000        16
 144.500        13
 145.000        19
 145.500        13
 146.000        23
 146.500        12
 147.000        10
 147.500        12
 148.000        10
 148.500         6
 149.000        19
 149.500        15
 150.000        23

File: GRANODIO.PRN
   5.000       166
   5.500       146
   6.000       129
   6.500       123
   7.000       136
   7.500       129
   8.000       171
   8.500      1049
   9.000       524
   9.500       104
  10.000       110
  10.500       492
  11.000        77
  11.500        70
  12.000        77
  12.500       420
  13.000        72
  13.500        96
  14.000        82
  14.500        56
  15.000        94
  15.500        62
  16.000        57
  16.500        56
  17.000        59
  17.500        84
  18.000        53
  18.500        50
  19.000        84
  19.500        56
  20.000        56
  20.500        75
  21.000       416
  21.500        75
  22.000       571
  22.500       125
  23.000       207
  23.500       327
  24.000       285
  24.500       196
  25.000       118
  25.500       268
  26.000       179
  26.500      4583
  27.000       432
  27.500      1474
  28.000      2851
  28.500       252
  29.000        77
  29.500       148
  30.000       201
  30.500       457
  31.000       100
  31.500       320
  32.000       104
  32.500        82
  33.000        88
  33.500        47
  34.000       187
  34.500       110
  35.000       144
  35.500       299
  36.000       196
  36.500       353
  37.000       127
  37.500        96
  38.000        50
  38.500        79
  39.000        57
  39.500       542
  40.000        67
  40.500        72
  41.000        70
  41.500       116
  42.000        90
  42.500       384
  43.000       125
  43.500        37
  44.000        57
  44.500        53
  45.000       488
  45.500       121
  46.000       116
  46.500        53
  47.000        75
  47.500       118
  48.000        56
  48.500        96
  49.000        96
  49.500        84
  50.000       282
  50.500       141
  51.000       104
  51.500       182
  52.000        47
  52.500       118
  53.000        90
  53.500        70
  54.000        88
  54.500       193
  55.000       193
  55.500       114
  56.000        56
  56.500        59
  57.000        50
  57.500        79
  58.000        50
  58.500        92
  59.000        77
  59.500        92
  60.000       645
  60.500        96
  61.000        67
  61.500        72
  62.000       102
  62.500        70
  63.000        94
  63.500        79
  64.000       196
  64.500        98
  65.000       129
  65.500        90
  66.000        82
  66.500        96
  67.000        73
  67.500        88
  68.000       249
  68.500       424
  69.000        77
  69.500       104
  70.000       108
  70.500        57
  71.000        96
  71.500       114
  72.000        75
  72.500        60
  73.000        82
  73.500       153
  74.000        88
  74.500        88
  75.000        84
  75.500       136
  76.000        70
  76.500        54
  77.000        50
  77.500        59
  78.000        79
  78.500        84
  79.000        75
  79.500        77
  80.000       125
  80.500        65
  81.000        57
  81.500       225
  82.000        32
  82.500        64
  83.000        60
  83.500        59
  84.000        68
  84.500        65
  85.000        67
  85.500        56
  86.000        60
  86.500        47
  87.000        43
  87.500        54
  88.000        43
  88.500        49
  89.000        42
  89.500        47
  90.000        50
  90.500        56
  91.000        65
  91.500        34
  92.000        54
  92.500        72
  93.000        73
  93.500        40
  94.000        56
  94.500        62
  95.000       104
  95.500        53
  96.000        50
  96.500        54
  97.000        43
  97.500        32
  98.000        38
  98.500        47
  99.000        57
  99.500        54
 100.000        56
 100.500        32
 101.000        57
 101.500        46
 102.000        42
 102.500        53
 103.000        49
 103.500        50
 104.000        54
 104.500        65
 105.000        51
 105.500        43
 106.000        43
 106.500        53
 107.000        72
 107.500        43
 108.000        29
 108.500        37
 109.000        47
 109.500        38
 110.000        47
 110.500        49
 111.000        31
 111.500        38
 112.000        34
 112.500        37
 113.000        42
 113.500        34
 114.000        53
 114.500       163
 115.000        98
 115.500        54
 116.000        57
 116.500        34
 117.000        36
 117.500        38
 118.000        40
 118.500        47
 119.000        47
 119.500        27
 120.000        59
 120.500        51
 121.000        37
 121.500        32
 122.000        43
 122.500        67
 123.000        43
 123.500        29
 124.000        39
 124.500        39
 125.000        53
 125.500        38
 126.000        36
 126.500        33
 127.000        40
 127.500        56
 128.000        38
 128.500        36
 129.000        42
 129.500        39
 130.000        40
 130.500        44
 131.000        50
 131.500        50
 132.000        44
 132.500        67
 133.000        51
 133.500        60
 134.000        40
 134.500        51
 135.000        59
 135.500        47
 136.000        60
 136.500       116
 137.000        65
 137.500        59
 138.000        98
 138.500        59
 139.000        62
 139.500        64
 140.000        56
 140.500        53
 141.000        39
 141.500        43
 142.000        53
 142.500        38
 143.000        56
 143.500        75
 144.000        67
 144.500        65
 145.000        56
 145.500        43
 146.000        43
 146.500        62
 147.000        51
 147.500        77
 148.000        62
 148.500        43
 149.000        44
 149.500        38
 150.000        65