Folder: pyyuchen/data/XRD (part 5)

File: STARCH.PRN
  5.000 392
  5.320 432
  5.640 416
  5.960 412
  6.280 441
  6.600 475
  6.920 488
  7.240 576
  7.560 595
  7.880 566
  8.200 571
  8.520 635
  8.840 620
  9.160 665
  9.480 676
  9.800 829
 10.120 761
 10.440 817
 10.760 888
 11.080 912
 11.400 1043
 11.720 1011
 12.040 1102
 12.360 1225
 12.680 1274
 13.000 1310
 13.320 1288
 13.640 1354
 13.960 1361
 14.280 1444
 14.600 1497
 14.920 1713
 15.240 1747
 15.560 1747
 15.880 1730
 16.200 1713
 16.520 1857
 16.840 1989
 17.160 2116
 17.480 2016
 17.800 2016
 18.120 2061
 18.440 1971
 18.760 1849
 19.080 1840
 19.400 1806
 19.720 1927
 20.040 1831
 20.360 1722
 20.680 1722
 21.000 1705
 21.320 1616
 21.640 1600
 21.960 1600
 22.280 1624
 22.600 1722
 22.920 1664
 23.240 1552
 23.560 1421
 23.880 1376
 24.200 1339
 24.520 1253
 24.840 1162
 25.160 1069
 25.480 1043
 25.800 1108
 26.120 1069
 26.440 1024
 26.760 985
 27.080 973
 27.400 912
 27.720 954
 28.040 888
 28.360 961
 28.680 864
 29.000 870
 29.320 835
 29.640 864
 29.960 942
 30.280 894
 30.600 924
 30.920 930
 31.240 912
 31.560 870
 31.880 876
 32.200 870
 32.520 906
 32.840 936
 33.160 894
 33.480 864
 33.800 894
 34.120 992
 34.440 882
 34.760 888
 35.080 835
 35.400 888
 35.720 864
 36.040 823
 36.360 784
 36.680 806
 37.000 823
 37.320 806
 37.640 772
 37.960 784
 38.280 800
 38.600 772
 38.920 812
 39.240 756
 39.560 750
 39.880 696
 40.200 691
 40.520 707
 40.840 655
 41.160 696
 41.480 681
 41.800 625
 42.120 635
 42.440 670
 42.760 635
 43.080 635
 43.400 655
 43.720 650
 44.040 635
 44.360 650
 44.680 585
 45.000 600
 45.320 635
 45.640 576
 45.960 625
 46.280 585
 46.600 600
 46.920 590
 47.240 605
 47.560 552
 47.880 538
 48.200 566
 48.520 576
 48.840 497
 49.160 453
 49.480 515
 49.800 466
 50.120 492
 50.440 424
 50.760 470
 51.080 470
 51.400 436
 51.720 462
 52.040 420
 52.360 449
 52.680 392
 53.000 408
 53.320 388
 53.640 416
 53.960 327
 54.280 384
 54.600 349
 54.920 353
 55.240 316
 55.560 306
 55.880 306
 56.200 353
 56.520 302
 56.840 342
 57.160 313
 57.480 292
 57.800 306
 58.120 306
 58.440 278
 58.760 295
 59.080 313
 59.400 249
 59.720 289
 60.040 272
 60.360 262
 60.680 275
 61.000 246
 61.320 295
 61.640 240
 61.960 262
 62.280 265
 62.600 228
 62.920 231
 63.240 246
 63.560 225
 63.880 252
 64.200 246
 64.520 243
 64.840 225
 65.160 259
 65.480 243
 65.800 204
 66.120 240
 66.440 222
 66.760 246
 67.080 240
 67.400 225
 67.720 231
 68.040 240
 68.360 243
 68.680 210
 69.000 243
 69.320 231
 69.640 252
 69.960 222
 70.280 246
 70.600 237
 70.920 249
 71.240 243
 71.560 243
 71.880 249
 72.200 237
 72.520 240
 72.840 219
 73.160 228
 73.480 249
 73.800 216
 74.120 252
 74.440 240
 74.760 234
 75.080 219
 75.400 228
 75.720 246
 76.040 231
 76.360 234
 76.680 222
 77.000 216
 77.320 237
 77.640 198
 77.960 201
 78.280 225
 78.600 198
 78.920 252
 79.240 225
 79.560 231
 79.880 231
 80.200 228
 80.520 252
 80.840 213
 81.160 204
 81.480 213
 81.800 213
 82.120 213
 82.440 231
 82.760 213
 83.080 190
 83.400 210
 83.720 198
 84.040 193
 84.360 225
 84.680 228
 85.000 201
 85.320 210
 85.640 198
 85.960 176
 86.280 234
 86.600 210
 86.920 198
 87.240 187
 87.560 163
 87.880 176
 88.200 176
 88.520 176
 88.840 187
 89.160 193
 89.480 196
 89.800 193
 90.120 169
 90.440 169
 90.760 184
 91.080 179
 91.400 169
 91.720 161
 92.040 169
 92.360 179
 92.680 158
 93.000 163
 93.320 171
 93.640 163
 93.960 179
 94.280 174
 94.600 166
 94.920 176
 95.240 182
 95.560 169
 95.880 158
 96.200 151
 96.520 174
 96.840 153
 97.160 171
 97.480 156
 97.800 141
 98.120 158
 98.440 148
 98.760 123
 99.080 146
 99.400 136
 99.720 161
100.000 158

File: SUCROSE.PRN
  5.000 169
  5.320 158
  5.640 136
  5.960 169
  6.280 174
  6.600 132
  6.920 136
  7.240 132
  7.560 187
  7.880 275
  8.200 2550
  8.520 213
  8.840 132
  9.160 118
  9.480 112
  9.800 121
 10.120 127
 10.440 127
 10.760 127
 11.080 174
 11.400 900
 11.720 21432
 12.040 163
 12.360 272
 12.680 1324
 13.000 1406
 13.320 222
 13.640 118
 13.960 129
 14.280 121
 14.600 110
 14.920 129
 15.240 345
 15.560 3180
 15.880 243
 16.200 338
 16.520 1324
 16.840 817
 17.160 141
 17.480 166
 17.800 156
 18.120 841
 18.440 324
 18.760 3214
 19.080 295
 19.400 2025
 19.720 2520
 20.040 231
 20.360 1069
 20.680 2777
 21.000 256
 21.320 187
 21.640 196
 21.960 3124
 22.280 453
 22.600 6922
 22.920 240
 23.240 285
 23.560 1049
 23.880 216
 24.200 388
 24.520 1361
 24.840 4251
 25.160 2926
 25.480 306
 25.800 342
 26.120 372
 26.440 846
 26.760 265
 27.080 712
 27.400 707
 27.720 380
 28.040 201
 28.360 320
 28.680 561
 29.000 184
 29.320 179
 29.640 176
 29.960 210
 30.280 272
 30.600 1075
 30.920 1369
 31.240 1183
 31.560 357
 31.880 1421
 32.200 380
 32.520 357
 32.840 361
 33.160 278
 33.480 519
 33.800 436
 34.120 216
 34.440 285
 34.760 420
 35.080 252
 35.400 428
 35.720 3624
 36.040 457
 36.360 441
 36.680 552
 37.000 436
 37.320 510
 37.640 234
 37.960 470
 38.280 2070
 38.600 392
 38.920 756
 39.240 392
 39.560 449
 39.880 1361
 40.200 615
 40.520 571
 40.840 259
 41.160 368
 41.480 392
 41.800 231
 42.120 240
 42.440 262
 42.760 237
 43.080 295
 43.400 3806
 43.720 590
 44.040 876
 44.360 285
 44.680 278
 45.000 231
 45.320 331
 45.640 331
 45.960 488
 46.280 292
 46.600 342
 46.920 428
 47.240 524
 47.560 396
 47.880 718
 48.200 445
 48.520 441
 48.840 353
 49.160 327
 49.480 252
 49.800 327
 50.120 338
 50.440 561
 50.760 3422
 51.080 252
 51.400 219
 51.720 240
 52.040 313
 52.360 231
 52.680 275
 53.000 210
 53.320 262
 53.640 275
 53.960 457
 54.280 265
 54.600 256
 54.920 278
 55.240 416
 55.560 234
 55.880 349
 56.200 357
 56.520 349
 56.840 174
 57.160 228
 57.480 259
 57.800 272
 58.120 219
 58.440 249
 58.760 216
 59.080 282
 59.400 193
 59.720 182
 60.040 595
 60.360 334
 60.680 201
 61.000 193
 61.320 204
 61.640 243
 61.960 207
 62.280 196
 62.600 174
 62.920 216
 63.240 210
 63.560 324
 63.880 295
 64.200 231
 64.520 320
 64.840 331
 65.160 424
 65.480 240
 65.800 219
 66.120 316
 66.440 349
 66.760 334
 67.080 201
 67.400 179
 67.720 179
 68.040 166
 68.360 171
 68.680 196
 69.000 246
 69.320 538
 69.640 207
 69.960 240
 70.280 275
 70.600 204
 70.920 169
 71.240 302
 71.560 196
 71.880 176
 72.200 190
 72.520 201
 72.840 246
 73.160 228
 73.480 196
 73.800 179
 74.120 342
 74.440 246
 74.760 198
 75.080 204
 75.400 240
 75.720 187
 76.040 225
 76.360 213
 76.680 331
 77.000 190
 77.320 216
 77.640 207
 77.960 219
 78.280 174
 78.600 316
 78.920 234
 79.240 196
 79.560 228
 79.880 176
 80.200 166
 80.520 196
 80.840 228
 81.160 193
 81.480 204
 81.800 196
 82.120 169
 82.440 184
 82.760 219
 83.080 193
 83.400 216
 83.720 161
 84.040 136
 84.360 158
 84.680 158
 85.000 144
 85.320 116
 85.640 182
 85.960 171
 86.280 275
 86.600 174
 86.920 207
 87.240 615
 87.560 342
 87.880 163
 88.200 141
 88.520 163
 88.840 207
 89.160 174
 89.480 158
 89.800 243
 90.120 234
 90.440 166
 90.760 222
 91.080 156
 91.400 187
 91.720 198
 92.040 153
 92.360 169
 92.680 158
 93.000 174
 93.320 187
 93.640 146
 93.960 201
 94.280 176
 94.600 139
 94.920 148
 95.240 171
 95.560 156
 95.880 148
 96.200 201
 96.520 169
 96.840 153
 97.160 134
 97.480 174
 97.800 156
 98.120 163
 98.440 139
 98.760 153
 99.080 156
 99.400 141
 99.720 141
100.000 139

File: VALINE.PRN
  5.000 252
  5.320 219
  5.640 225
  5.960 231
  6.280 225
  6.600 231
  6.920 361
  7.240 2088
  7.560 11513
  7.880 154527
  8.200 29241
  8.520 590
  8.840 234
  9.160 136
  9.480 148
  9.800 116
 10.120 136
 10.440 129
 10.760 114
 11.080 132
 11.400 123
 11.720 125
 12.040 141
 12.360 151
 12.680 134
 13.000 141
 13.320 129
 13.640 156
 13.960 146
 14.280 174
 14.600 190
 14.920 204
 15.240 237
 15.560 1043
 15.880 17503
 16.200 5867
 16.520 345
 16.840 210
 17.160 193
 17.480 338
 17.800 2724
 18.120 475
 18.440 640
 18.760 225
 19.080 817
 19.400 309
 19.720 275
 20.040 184
 20.360 163
 20.680 174
 21.000 222
 21.320 492
 21.640 2550
 21.960 906
 22.280 187
 22.600 182
 22.920 198
 23.240 249
 23.560 1024
 23.880 2683
 24.200 13782
 24.520 372
 24.840 246
 25.160 246
 25.480 320
 25.800 750
 26.120 1197
 26.440 412
 26.760 1043
 27.080 1918
 27.400 313
 27.720 309
 28.040 320
 28.360 302
 28.680 432
 29.000 441
 29.320 665
 29.640 524
 29.960 912
 30.280 1176
 30.600 552
 30.920 580
 31.240 823
 31.560 1459
 31.880 7056
 32.200 41820
 32.520 38848
 32.840 1971
 33.160 3249
 33.480 3733
 33.800 1346
 34.120 712
 34.440 665
 34.760 784
 35.080 1069
 35.400 812
 35.720 817
 36.040 942
 36.360 784
 36.680 718
 37.000 1369
 37.320 1030
 37.640 542
 37.960 620
 38.280 712
 38.600 696
 38.920 484
 39.240 533
 39.560 681
 39.880 615
 40.200 1376
 40.520 4610
 40.840 17768
 41.160 864
 41.480 542
 41.800 605
 42.120 501
 42.440 342
 42.760 256
 43.080 299
 43.400 285
 43.720 262
 44.040 349
 44.360 320
 44.680 324
 45.000 252
 45.320 278
 45.640 349
 45.960 392
 46.280 361
 46.600 412
 46.920 278
 47.240 240
 47.560 207
 47.880 268
 48.200 376
 48.520 428
 48.840 372
 49.160 620
 49.480 1197
 49.800 345
 50.120 282
 50.440 324
 50.760 289
 51.080 240
 51.400 268
 51.720 295
 52.040 313
 52.360 357
 52.680 691
 53.000 1043
 53.320 289
 53.640 285
 53.960 331
 54.280 272
 54.600 313
 54.920 428
 55.240 285
 55.560 345
 55.880 295
 56.200 306
 56.520 364
 56.840 571
 57.160 817
 57.480 376
 57.800 345
 58.120 515
 58.440 829
 58.760 338
 59.080 324
 59.400 324
 59.720 285
 60.040 262
 60.360 265
 60.680 313
 61.000 615
 61.320 979
 61.640 930
 61.960 345
 62.280 506
 62.600 272
 62.920 234
 63.240 225
 63.560 268
 63.880 213
 64.200 272
 64.520 252
 64.840 361
 65.160 384
 65.480 457
 65.800 707
 66.120 630
 66.440 372
 66.760 285
 67.080 331
 67.400 384
 67.720 936
 68.040 275
 68.360 231
 68.680 228
 69.000 213
 69.320 246
 69.640 240
 69.960 285
 70.280 252
 70.600 396
 70.920 320
 71.240 225
 71.560 243
 71.880 219
 72.200 187
 72.520 184
 72.840 210
 73.160 240
 73.480 231
 73.800 216
 74.120 228
 74.440 240
 74.760 295
 75.080 400
 75.400 384
 75.720 259
 76.040 278
 76.360 268
 76.680 187
 77.000 249
 77.320 204
 77.640 262
 77.960 262
 78.280 231
 78.600 198
 78.920 207
 79.240 196
 79.560 169
 79.880 240
 80.200 306
 80.520 262
 80.840 187
 81.160 210
 81.480 156
 81.800 174
 82.120 184
 82.440 184
 82.760 210
 83.080 187
 83.400 187
 83.720 158
 84.040 174
 84.360 161
 84.680 184
 85.000 252
 85.320 285
 85.640 268
 85.960 187
 86.280 201
 86.600 187
 86.920 196
 87.240 182
 87.560 187
 87.880 166
 88.200 219
 88.520 171
 88.840 196
 89.160 193
 89.480 184
 89.800 204
 90.120 184
 90.440 219
 90.760 289
 91.080 240
 91.400 196
 91.720 225
 92.040 190
 92.360 176
 92.680 182
 93.000 187
 93.320 176
 93.640 182
 93.960 182
 94.280 184
 94.600 182
 94.920 179
 95.240 182
 95.560 144
 95.880 166
 96.200 171
 96.520 184
 96.840 169
 97.160 156
 97.480 207
 97.800 198
 98.120 193
 98.440 184
 98.760 213
 99.080 169
 99.400 163
 99.720 153
100.000 176

File: ZINCITE.PRN
   5.000       222
   5.500       166
   6.000       141
   6.500       123
   7.000       108
   7.500       112
   8.000       104
   8.500        94
   9.000        98
   9.500        92
  10.000        92
  10.500        82
  11.000        67
  11.500        77
  12.000        65
  12.500        77
  13.000        77
  13.500        67
  14.000        59
  14.500        57
  15.000        54
  15.500        60
  16.000        53
  16.500        67
  17.000        59
  17.500        44
  18.000        50
  18.500        42
  19.000        54
  19.500        46
  20.000        53
  20.500        46
  21.000        46
  21.500        57
  22.000        46
  22.500        51
  23.000        47
  23.500        44
  24.000        65
  24.500        49
  25.000        42
  25.500        57
  26.000        38
  26.500        38
  27.000        47
  27.500        40
  28.000        47
  28.500        50
  29.000        44
  29.500        51
  30.000        72
  30.500        72
  31.000       136
  31.500       492
  32.000       894
  32.500       121
  33.000        98
  33.500        92
  34.000       193
  34.500      7761
  35.000       151
  35.500       163
  36.000       973
  36.500      1436
  37.000       148
  37.500        70
  38.000        67
  38.500        70
  39.000        56
  39.500        56
  40.000        46
  40.500        57
  41.000        56
  41.500        49
  42.000        49
  42.500        50
  43.000        40
  43.500        46
  44.000        38
  44.500        47
  45.000        43
  45.500        46
  46.000        72
  46.500        70
  47.000        96
  47.500      3226
  48.000       121
  48.500        53
  49.000        65
  49.500        50
  50.000        46
  50.500        38
  51.000        38
  51.500        47
  52.000        47
  52.500        49
  53.000        57
  53.500        64
  54.000        44
  54.500        72
  55.000        65
  55.500        96
  56.000        96
  56.500      1849
  57.000       246
  57.500        82
  58.000        77
  58.500        70
  59.000        75
  59.500        64
  60.000        70
  60.500        68
  61.000        68
  61.500        75
  62.000        86
  62.500       246
  63.000      2926
  63.500       127
  64.000        82
  64.500        75
  65.000        90
  65.500        79
  66.000        88
  66.500       488
  67.000       116
  67.500       134
  68.000      5140
  68.500       184
  69.000       823
  69.500       156
  70.000        90
  70.500        77
  71.000        53
  71.500        53
  72.000        56
  72.500       228
  73.000        44
  73.500        50
  74.000        42
  74.500        49
  75.000        47
  75.500        43
  76.000        59
  76.500        54
  77.000       795
  77.500        56
  78.000        44
  78.500        31
  79.000        50
  79.500        44
  80.000        46
  80.500        40
  81.000        50
  81.500       207
  82.000        50
  82.500        38
  83.000        39
  83.500        40
  84.000        51
  84.500        46
  85.000        38
  85.500        36
  86.000        56
  86.500        53
  87.000        59
  87.500        50
  88.000        43
  88.500        50
  89.000        59
  89.500       361
  90.000       475
  90.500        65
  91.000        67
  91.500        56
  92.000        53
  92.500        84
  93.000       182
  93.500        70
  94.000        57
  94.500        73
  95.000       129
  95.500       441
  96.000        88
  96.500        62
  97.000        57
  97.500        53
  98.000        88
  98.500       216
  99.000       506
  99.500        75
 100.000        54
 100.500        46
 101.000        54
 101.500        67
 102.000        64
 102.500        82
 103.000       645
 103.500       121
 104.000       259
 104.500       590
 105.000        53
 105.500        72
 106.000        54
 106.500        59
 107.000        70
 107.500       216
 108.000        77
 108.500        49
 109.000        56
 109.500        56
 110.000       100
 110.500       538
 111.000       146
 111.500        72
 112.000        67
 112.500        72
 113.000        57
 113.500        54
 114.000        56
 114.500        56
 115.000        65
 115.500        98
 116.000       161
 116.500       404
 117.000       196
 117.500        73
 118.000        70
 118.500        44
 119.000        44
 119.500        51
 120.000        65
 120.500        72
 121.000        94
 121.500       479
 122.000       289
 122.500        75
 123.000        49
 123.500        54
 124.000        51
 124.500        75
 125.000        77
 125.500        72
 126.000        60
 126.500        56
 127.000        53
 127.500        51
 128.000        49
 128.500        67
 129.000        67
 129.500        53
 130.000        56
 130.500        40
 131.000        47
 131.500        57
 132.000        49
 132.500        67
 133.000        73
 133.500        84
 134.000       882
 134.500       219
 135.000       100
 135.500        72
 136.000        64
 136.500       174
 137.000        88
 137.500       108
 138.000        67
 138.500       278
 139.000        90
 139.500       114
 140.000        77
 140.500        53
 141.000        62
 141.500        50
 142.000        65
 142.500        77
 143.000       660
 143.500       112
 144.000       216
 144.500        82
 145.000        73
 145.500        54
 146.000        70
 146.500        62
 147.000        72
 147.500        62
 148.000        70
 148.500        53
 149.000        59
 149.500        67
 150.000        65