Folder: pyyuchen/data/XRD (part 4)

File: MAGNETIT.PRN
   5.000       166
   5.500       132
   6.000       114
   6.500       132
   7.000       104
   7.500       102
   8.000        98
   8.500        82
   9.000        79
   9.500        70
  10.000        73
  10.500        65
  11.000        67
  11.500        50
  12.000        57
  12.500        57
  13.000        60
  13.500        47
  14.000        42
  14.500        46
  15.000        43
  15.500        42
  16.000        40
  16.500        29
  17.000        34
  17.500        44
  18.000        47
  18.500        86
  19.000        32
  19.500        32
  20.000        30
  20.500        38
  21.000        32
  21.500        23
  22.000        27
  22.500        15
  23.000        22
  23.500        21
  24.000        23
  24.500        37
  25.000        22
  25.500        25
  26.000        27
  26.500        29
  27.000        16
  27.500        22
  28.000        13
  28.500        24
  29.000        21
  29.500        37
  30.000       524
  30.500        90
  31.000        32
  31.500        27
  32.000        23
  32.500        16
  33.000        21
  33.500        25
  34.000        25
  34.500        46
  35.000       182
  35.500      2430
  36.000       169
  36.500        50
  37.000       136
  37.500        43
  38.000        32
  38.500        24
  39.000        19
  39.500        22
  40.000        23
  40.500        24
  41.000        12
  41.500        20
  42.000        12
  42.500        56
  43.000       396
  43.500        90
  44.000        16
  44.500        16
  45.000        16
  45.500        12
  46.000        13
  46.500         4
  47.000        21
  47.500        12
  48.000         6
  48.500        12
  49.000        10
  49.500        12
  50.000        17
  50.500         7
  51.000        19
  51.500        10
  52.000        10
  52.500        21
  53.000        43
  53.500       201
  54.000        30
  54.500        24
  55.000        22
  55.500        17
  56.000        32
  56.500        77
  57.000       542
  57.500       104
  58.000        38
  58.500        23
  59.000        16
  59.500        17
  60.000        10
  60.500        15
  61.000        28
  61.500        29
  62.000       125
  62.500       533
  63.000       225
  63.500        57
  64.000        21
  64.500        10
  65.000        30
  65.500        19
  66.000        23
  66.500        23
  67.000        16
  67.500         7
  68.000        10
  68.500        12
  69.000        12
  69.500         9
  70.000        12
  70.500        22
  71.000        67
  71.500        17
  72.000        17
  72.500        10
  73.000        20
  73.500        39
  74.000       110
  74.500        49
  75.000        65
  75.500        32
  76.000        17
  76.500        19
  77.000         5
  77.500         9
  78.000        10
  78.500        24
  79.000        37
  79.500        22
  80.000        19
  80.500        20
  81.000         9
  81.500        13
  82.000        16
  82.500        20
  83.000        13
  83.500        10
  84.000        10
  84.500         6
  85.000         7
  85.500        12
  86.000        16
  86.500        30
  87.000        43
  87.500        33
  88.000        13
  88.500        28
  89.000        40
  89.500       110
  90.000       110
  90.500        43
  91.000        23
  91.500        20
  92.000        16
  92.500        12
  93.000        22
  93.500        22
  94.000        23
  94.500        56
  95.000        43
  95.500        27
  96.000        17
  96.500        19
  97.000        16
  97.500        12
  98.000        10
  98.500         5
  99.000        10
  99.500         6
 100.000         6
 100.500        10
 101.000         7
 101.500        13
 102.000        19
 102.500        32
 103.000        23
 103.500        22
 104.000        19
 104.500        30
 105.000        54
 105.500        65
 106.000        44
 106.500        37
 107.000        16
 107.500        12
 108.000        25
 108.500        12
 109.000        10
 109.500        25
 110.000        25
 110.500        39
 111.000        36
 111.500        20
 112.000        10
 112.500         4
 113.000         9
 113.500        20
 114.000        13
 114.500         6
 115.000         4
 115.500        10
 116.000         5
 116.500        16
 117.000        15
 117.500        20
 118.000        10
 118.500        13
 119.000        12
 119.500        16
 120.000         7
 120.500        19
 121.000        21
 121.500        30
 122.000        40
 122.500        64
 123.000        39
 123.500        34
 124.000        19
 124.500        28
 125.000        21
 125.500        19
 126.000        13
 126.500        31
 127.000        26
 127.500        56
 128.000        98
 128.500        88
 129.000        70
 129.500        50
 130.000        26
 130.500        28
 131.000        16
 131.500        25
 132.000        12
 132.500        13
 133.000        16
 133.500        20
 134.000        21
 134.500        10
 135.000        20
 135.500        16
 136.000        16
 136.500        10
 137.000        15
 137.500        22
 138.000        21
 138.500        26
 139.000        38
 139.500        24
 140.000        17
 140.500        29
 141.000        22
 141.500        26
 142.000        42
 142.500        36
 143.000        49
 143.500        65
 144.000        57
 144.500        46
 145.000        56
 145.500        42
 146.000        21
 146.500        32
 147.000        31
 147.500        16
 148.000        21
 148.500        13
 149.000        12
 149.500        12
 150.000        12

File: MANNITOL.PRN
  5.000 196
  5.320 187
  5.640 176
  5.960 158
  6.280 182
  6.600 163
  6.920 148
  7.240 141
  7.560 151
  7.880 139
  8.200 129
  8.520 125
  8.840 156
  9.160 148
  9.480 123
  9.800 187
 10.120 817
 10.440 11924
 10.760 176
 11.080 190
 11.400 795
 11.720 146
 12.040 132
 12.360 127
 12.680 136
 13.000 151
 13.320 144
 13.640 148
 13.960 174
 14.280 1552
 14.600 16770
 14.920 256
 15.240 144
 15.560 141
 15.880 136
 16.200 169
 16.520 380
 16.840 812
 17.160 187
 17.480 176
 17.800 222
 18.120 392
 18.440 3576
 18.760 32400
 19.080 1369
 19.400 282
 19.720 338
 20.040 388
 20.360 3260
 20.680 912
 21.000 9139
 21.320 515
 21.640 1909
 21.960 240
 22.280 292
 22.600 364
 22.920 1780
 23.240 21462
 23.560 1697
 23.880 372
 24.200 331
 24.520 1036
 24.840 357
 25.160 237
 25.480 412
 25.800 1840
 26.120 416
 26.440 510
 26.760 216
 27.080 228
 27.400 240
 27.720 416
 28.040 1892
 28.360 5595
 28.680 299
 29.000 600
 29.320 3994
 29.640 756
 29.960 268
 30.280 289
 30.600 368
 30.920 349
 31.240 1095
 31.560 2097
 31.880 973
 32.200 361
 32.520 906
 32.840 470
 33.160 1332
 33.480 5184
 33.800 858
 34.120 580
 34.440 595
 34.760 605
 35.080 292
 35.400 289
 35.720 620
 36.040 1135
 36.360 320
 36.680 278
 37.000 327
 37.320 408
 37.640 449
 37.960 524
 38.280 1391
 38.600 5535
 38.920 650
 39.240 331
 39.560 295
 39.880 400
 40.200 436
 40.520 275
 40.840 289
 41.160 327
 41.480 484
 41.800 556
 42.120 501
 42.440 453
 42.760 1128
 43.080 515
 43.400 876
 43.720 1592
 44.040 8100
 44.360 590
 44.680 449
 45.000 384
 45.320 441
 45.640 470
 45.960 396
 46.280 252
 46.600 309
 46.920 580
 47.240 795
 47.560 605
 47.880 1204
 48.200 392
 48.520 219
 48.840 213
 49.160 196
 49.480 234
 49.800 295
 50.120 327
 50.440 412
 50.760 338
 51.080 364
 51.400 259
 51.720 272
 52.040 289
 52.360 376
 52.680 278
 53.000 357
 53.320 306
 53.640 309
 53.960 357
 54.280 372
 54.600 510
 54.920 240
 55.240 292
 55.560 309
 55.880 237
 56.200 334
 56.520 259
 56.840 282
 57.160 201
 57.480 176
 57.800 243
 58.120 259
 58.440 436
 58.760 445
 59.080 240
 59.400 309
 59.720 225
 60.040 219
 60.360 265
 60.680 313
 61.000 334
 61.320 252
 61.640 169
 61.960 196
 62.280 222
 62.600 234
 62.920 285
 63.240 237
 63.560 353
 63.880 331
 64.200 222
 64.520 196
 64.840 179
 65.160 278
 65.480 372
 65.800 256
 66.120 466
 66.440 384
 66.760 272
 67.080 201
 67.400 179
 67.720 196
 68.040 213
 68.360 196
 68.680 231
 69.000 282
 69.320 256
 69.640 225
 69.960 187
 70.280 231
 70.600 306
 70.920 349
 71.240 187
 71.560 222
 71.880 174
 72.200 207
 72.520 259
 72.840 201
 73.160 182
 73.480 275
 73.800 256
 74.120 182
 74.440 182
 74.760 176
 75.080 216
 75.400 201
 75.720 219
 76.040 196
 76.360 210
 76.680 204
 77.000 231
 77.320 213
 77.640 207
 77.960 201
 78.280 213
 78.600 169
 78.920 169
 79.240 225
 79.560 278
 79.880 265
 80.200 182
 80.520 187
 80.840 207
 81.160 139
 81.480 184
 81.800 161
 82.120 193
 82.440 222
 82.760 184
 83.080 210
 83.400 219
 83.720 171
 84.040 210
 84.360 204
 84.680 204
 85.000 176
 85.320 182
 85.640 182
 85.960 169
 86.280 176
 86.600 161
 86.920 196
 87.240 179
 87.560 176
 87.880 156
 88.200 196
 88.520 182
 88.840 166
 89.160 182
 89.480 179
 89.800 216
 90.120 166
 90.440 182
 90.760 174
 91.080 139
 91.400 136
 91.720 151
 92.040 151
 92.360 136
 92.680 139
 93.000 141
 93.320 156
 93.640 176
 93.960 176
 94.280 201
 94.600 158
 94.920 174
 95.240 179
 95.560 153
 95.880 151
 96.200 190
 96.520 148
 96.840 174
 97.160 121
 97.480 136
 97.800 146
 98.120 127
 98.440 141
 98.760 139
 99.080 139
 99.400 139
 99.720 110
100.000 148

File: NIZATIDI.PRN
  5.000 179
  5.320 163
  5.640 148
  5.960 158
  6.280 219
  6.600 650
  6.920 6068
  7.240 141
  7.560 129
  7.880 121
  8.200 110
  8.520 110
  8.840 127
  9.160 112
  9.480 100
  9.800 108
 10.120 110
 10.440 231
 10.760 102
 11.080 92
 11.400 118
 11.720 104
 12.040 153
 12.360 104
 12.680 106
 13.000 132
 13.320 108
 13.640 198
 13.960 466
 14.280 4356
 14.600 778
 14.920 156
 15.240 169
 15.560 129
 15.880 213
 16.200 484
 16.520 213
 16.840 605
 17.160 590
 17.480 139
 17.800 141
 18.120 234
 18.440 121
 18.760 141
 19.080 179
 19.400 1376
 19.720 676
 20.040 2361
 20.360 538
 20.680 198
 21.000 707
 21.320 345
 21.640 179
 21.960 285
 22.280 595
 22.600 408
 22.920 1218
 23.240 2190
 23.560 338
 23.880 625
 24.200 918
 24.520 1332
 24.840 259
 25.160 396
 25.480 299
 25.800 292
 26.120 835
 26.440 5416
 26.760 846
 27.080 292
 27.400 718
 27.720 696
 28.040 324
 28.360 228
 28.680 231
 29.000 466
 29.320 219
 29.640 1324
 29.960 492
 30.280 207
 30.600 342
 30.920 630
 31.240 174
 31.560 228
 31.880 252
 32.200 184
 32.520 174
 32.840 156
 33.160 289
 33.480 268
 33.800 282
 34.120 231
 34.440 275
 34.760 169
 35.080 240
 35.400 313
 35.720 256
 36.040 316
 36.360 184
 36.680 361
 37.000 262
 37.320 156
 37.640 210
 37.960 187
 38.280 282
 38.600 364
 38.920 349
 39.240 198
 39.560 299
 39.880 240
 40.200 306
 40.520 292
 40.840 272
 41.160 228
 41.480 174
 41.800 169
 42.120 222
 42.440 182
 42.760 174
 43.080 213
 43.400 187
 43.720 388
 44.040 353
 44.360 353
 44.680 193
 45.000 179
 45.320 201
 45.640 166
 45.960 163
 46.280 182
 46.600 207
 46.920 262
 47.240 342
 47.560 207
 47.880 225
 48.200 148
 48.520 121
 48.840 148
 49.160 163
 49.480 174
 49.800 285
 50.120 302
 50.440 158
 50.760 243
 51.080 219
 51.400 163
 51.720 141
 52.040 182
 52.360 158
 52.680 193
 53.000 196
 53.320 268
 53.640 193
 53.960 176
 54.280 169
 54.600 158
 54.920 174
 55.240 132
 55.560 169
 55.880 153
 56.200 158
 56.520 141
 56.840 127
 57.160 132
 57.480 182
 57.800 174
 58.120 139
 58.440 144
 58.760 127
 59.080 158
 59.400 144
 59.720 146
 60.040 136
 60.360 146
 60.680 134
 61.000 141
 61.320 125
 61.640 129
 61.960 153
 62.280 129
 62.600 134
 62.920 121
 63.240 118
 63.560 116
 63.880 118
 64.200 112
 64.520 106
 64.840 158
 65.160 127
 65.480 139
 65.800 174
 66.120 136
 66.440 151
 66.760 118
 67.080 129
 67.400 118
 67.720 114
 68.040 127
 68.360 114
 68.680 110
 69.000 129
 69.320 134
 69.640 123
 69.960 144
 70.280 108
 70.600 112
 70.920 100
 71.240 114
 71.560 88
 71.880 125
 72.200 110
 72.520 116
 72.840 129
 73.160 129
 73.480 106
 73.800 90
 74.120 114
 74.440 116
 74.760 108
 75.080 116
 75.400 104
 75.720 104
 76.040 121
 76.360 118
 76.680 100
 77.000 98
 77.320 121
 77.640 100
 77.960 98
 78.280 100
 78.600 112
 78.920 116
 79.240 121
 79.560 106
 79.880 100
 80.200 86
 80.520 84
 80.840 108
 81.160 102
 81.480 102
 81.800 110
 82.120 106
 82.440 121
 82.760 90
 83.080 110
 83.400 94
 83.720 104
 84.040 98
 84.360 106
 84.680 94
 85.000 96
 85.320 94
 85.640 84
 85.960 88
 86.280 96
 86.600 86
 86.920 90
 87.240 90
 87.560 77
 87.880 104
 88.200 82
 88.520 92
 88.840 90
 89.160 96
 89.480 86
 89.800 82
 90.120 88
 90.440 62
 90.760 73
 91.080 94
 91.400 75
 91.720 77
 92.040 90
 92.360 68
 92.680 79
 93.000 84
 93.320 90
 93.640 84
 93.960 75
 94.280 94
 94.600 59
 94.920 82
 95.240 70
 95.560 92
 95.880 77
 96.200 79
 96.520 90
 96.840 79
 97.160 79
 97.480 92
 97.800 75
 98.120 73
 98.440 73
 98.760 90
 99.080 72
 99.400 94
 99.720 81
100.000 96

File: PHARM1GR.PRN
  5.000 210
  5.320 193
  5.640 196
  5.960 193
  6.280 204
  6.600 285
  6.920 918
  7.240 479
  7.560 2016
  7.880 40280
  8.200 1075
  8.520 179
  8.840 158
  9.160 139
  9.480 127
  9.800 118
 10.120 265
 10.440 3192
 10.760 139
 11.080 169
 11.400 515
 11.720 1600
 12.040 174
 12.360 193
 12.680 795
 13.000 973
 13.320 184
 13.640 144
 13.960 237
 14.280 1421
 14.600 6037
 14.920 196
 15.240 306
 15.560 600
 15.880 3306
 16.200 696
 16.520 384
 16.840 756
 17.160 259
 17.480 216
 17.800 1115
 18.120 533
 18.440 1135
 18.760 16384
 19.080 1024
 19.400 1332
 19.720 645
 20.040 812
 20.360 2143
 20.680 620
 21.000 3576
 21.320 466
 21.640 1428
 21.960 998
 22.280 396
 22.600 1544
 22.920 829
 23.240 4489
 23.560 1056
 23.880 778
 24.200 1075
 24.520 1108
 24.840 942
 25.160 1369
 25.480 349
 25.800 973
 26.120 620
 26.440 2313
 26.760 561
 27.080 441
 27.400 600
 27.720 501
 28.040 739
 28.360 1459
 28.680 457
 29.000 380
 29.320 1962
 29.640 510
 29.960 380
 30.280 302
 30.600 479
 30.920 918
 31.240 750
 31.560 979
 31.880 1413
 32.200 13971
 32.520 1747
 32.840 571
 33.160 936
 33.480 2450
 33.800 645
 34.120 492
 34.440 420
 34.760 542
 35.080 416
 35.400 552
 35.720 571
 36.040 948
 36.360 327
 36.680 501
 37.000 470
 37.320 630
 37.640 345
 37.960 470
 38.280 1024
 38.600 2460
 38.920 561
 39.240 449
 39.560 515
 39.880 784
 40.200 681
 40.520 973
 40.840 2025
 41.160 400
 41.480 475
 41.800 600
 42.120 400
 42.440 316
 42.760 492
 43.080 345
 43.400 506
 43.720 620
 44.040 2756
 44.360 376
 44.680 327
 45.000 338
 45.320 327
 45.640 361
 45.960 420
 46.280 289
 46.600 357
 46.920 470
 47.240 501
 47.560 416
 47.880 519
 48.200 552
 48.520 292
 48.840 252
 49.160 388
 49.480 376
 49.800 334
 50.120 345
 50.440 357
 50.760 357
 51.080 292
 51.400 278
 51.720 256
 52.040 428
 52.360 275
 52.680 368
 53.000 416
 53.320 275
 53.640 295
 53.960 615
 54.280 345
 54.600 432
 54.920 327
 55.240 295
 55.560 275
 55.880 256
 56.200 380
 56.520 256
 56.840 246
 57.160 249
 57.480 237
 57.800 234
 58.120 262
 58.440 388
 58.760 272
 59.080 201
 59.400 228
 59.720 216
 60.040 198
 60.360 231
 60.680 292
 61.000 309
 61.320 295
 61.640 237
 61.960 213
 62.280 240
 62.600 237
 62.920 262
 63.240 207
 63.560 299
 63.880 262
 64.200 231
 64.520 187
 64.840 207
 65.160 275
 65.480 306
 65.800 278
 66.120 364
 66.440 388
 66.760 225
 67.080 179
 67.400 179
 67.720 234
 68.040 156
 68.360 187
 68.680 161
 69.000 213
 69.320 207
 69.640 187
 69.960 198
 70.280 201
 70.600 246
 70.920 246
 71.240 184
 71.560 169
 71.880 190
 72.200 231
 72.520 198
 72.840 174
 73.160 187
 73.480 213
 73.800 198
 74.120 176
 74.440 198
 74.760 198
 75.080 219
 75.400 207
 75.720 184
 76.040 182
 76.360 182
 76.680 210
 77.000 207
 77.320 179
 77.640 222
 77.960 228
 78.280 187
 78.600 174
 78.920 184
 79.240 213
 79.560 262
 79.880 225
 80.200 187
 80.520 252
 80.840 148
 81.160 153
 81.480 136
 81.800 176
 82.120 169
 82.440 193
 82.760 216
 83.080 182
 83.400 182
 83.720 174
 84.040 184
 84.360 153
 84.680 174
 85.000 153
 85.320 193
 85.640 174
 85.960 201
 86.280 161
 86.600 146
 86.920 179
 87.240 151
 87.560 174
 87.880 161
 88.200 161
 88.520 144
 88.840 144
 89.160 146
 89.480 169
 89.800 148
 90.120 129
 90.440 153
 90.760 151
 91.080 153
 91.400 156
 91.720 144
 92.040 144
 92.360 141
 92.680 134
 93.000 148
 93.320 146
 93.640 174
 93.960 169
 94.280 153
 94.600 153
 94.920 144
 95.240 146
 95.560 129
 95.880 148
 96.200 163
 96.520 156
 96.840 153
 97.160 123
 97.480 129
 97.800 161
 98.120 146
 98.440 136
 98.760 123
 99.080 148
 99.400 136
 99.720 121
100.000 141

File: PHARM2GR.PRN
  5.000 234
  5.320 228
  5.640 231
  5.960 252
  6.280 249
  6.600 376
  6.920 1156
  7.240 547
  7.560 1892
  7.880 23932
  8.200 985
  8.520 265
  8.840 252
  9.160 246
  9.480 272
  9.800 292
 10.120 313
 10.440 2401
 10.760 278
 11.080 331
 11.400 492
 11.720 870
 12.040 327
 12.360 364
 12.680 620
 13.000 547
 13.320 408
 13.640 412
 13.960 510
 14.280 1755
 14.600 3025
 14.920 519
 15.240 605
 15.560 655
 15.880 1927
 16.200 930
 16.520 718
 16.840 1095
 17.160 645
 17.480 640
 17.800 1497
 18.120 817
 18.440 948
 18.760 6789
 19.080 1135
 19.400 1232
 19.720 985
 20.040 1232
 20.360 1849
 20.680 846
 21.000 1971
 21.320 784
 21.640 1162
 21.960 734
 22.280 778
 22.600 635
 22.920 1128
 23.240 3091
 23.560 1128
 23.880 1043
 24.200 1361
 24.520 1122
 24.840 961
 25.160 1544
 25.480 497
 25.800 985
 26.120 789
 26.440 1489
 26.760 812
 27.080 547
 27.400 655
 27.720 645
 28.040 605
 28.360 900
 28.680 515
 29.000 432
 29.320 1197
 29.640 605
 29.960 529
 30.280 497
 30.600 492
 30.920 676
 31.240 542
 31.560 600
 31.880 936
 32.200 4556
 32.520 1361
 32.840 556
 33.160 912
 33.480 1989
 33.800 650
 34.120 506
 34.440 510
 34.760 524
 35.080 515
 35.400 585
 35.720 547
 36.040 789
 36.360 542
 36.680 542
 37.000 571
 37.320 556
 37.640 462
 37.960 475
 38.280 1017
 38.600 1156
 38.920 529
 39.240 470
 39.560 590
 39.880 529
 40.200 625
 40.520 864
 40.840 1681
 41.160 600
 41.480 475
 41.800 484
 42.120 449
 42.440 384
 42.760 436
 43.080 368
 43.400 475
 43.720 660
 44.040 1102
 44.360 408
 44.680 392
 45.000 331
 45.320 361
 45.640 388
 45.960 428
 46.280 376
 46.600 349
 46.920 392
 47.240 492
 47.560 432
 47.880 497
 48.200 338
 48.520 331
 48.840 349
 49.160 353
 49.480 384
 49.800 364
 50.120 353
 50.440 345
 50.760 396
 51.080 278
 51.400 289
 51.720 289
 52.040 420
 52.360 302
 52.680 345
 53.000 345
 53.320 320
 53.640 306
 53.960 424
 54.280 324
 54.600 408
 54.920 302
 55.240 275
 55.560 285
 55.880 265
 56.200 259
 56.520 265
 56.840 262
 57.160 268
 57.480 246
 57.800 231
 58.120 282
 58.440 268
 58.760 262
 59.080 249
 59.400 249
 59.720 228
 60.040 201
 60.360 216
 60.680 231
 61.000 228
 61.320 272
 61.640 225
 61.960 225
 62.280 207
 62.600 196
 62.920 246
 63.240 198
 63.560 327
 63.880 249
 64.200 193
 64.520 198
 64.840 210
 65.160 240
 65.480 285
 65.800 243
 66.120 272
 66.440 256
 66.760 237
 67.080 182
 67.400 184
 67.720 222
 68.040 174
 68.360 198
 68.680 198
 69.000 182
 69.320 222
 69.640 207
 69.960 196
 70.280 184
 70.600 216
 70.920 231
 71.240 207
 71.560 201
 71.880 163
 72.200 184
 72.520 210
 72.840 187
 73.160 187
 73.480 225
 73.800 198
 74.120 182
 74.440 182
 74.760 196
 75.080 207
 75.400 198
 75.720 204
 76.040 196
 76.360 184
 76.680 174
 77.000 196
 77.320 187
 77.640 207
 77.960 219
 78.280 201
 78.600 184
 78.920 163
 79.240 193
 79.560 179
 79.880 179
 80.200 201
 80.520 210
 80.840 158
 81.160 187
 81.480 148
 81.800 146
 82.120 163
 82.440 204
 82.760 193
 83.080 161
 83.400 176
 83.720 169
 84.040 158
 84.360 166
 84.680 201
 85.000 166
 85.320 179
 85.640 171
 85.960 158
 86.280 179
 86.600 169
 86.920 148
 87.240 176
 87.560 153
 87.880 161
 88.200 153
 88.520 163
 88.840 148
 89.160 166
 89.480 174
 89.800 219
 90.120 187
 90.440 153
 90.760 148
 91.080 129
 91.400 132
 91.720 176
 92.040 144
 92.360 129
 92.680 166
 93.000 161
 93.320 158
 93.640 153
 93.960 158
 94.280 151
 94.600 146
 94.920 163
 95.240 139
 95.560 153
 95.880 132
 96.200 148
 96.520 141
 96.840 148
 97.160 116
 97.480 125
 97.800 144
 98.120 132
 98.440 116
 98.760 134
 99.080 121
 99.400 123
 99.720 110
100.000 116

File: SILICA.PRN
   5.000       912
   5.500       767
   6.000       580
   6.500       576
   7.000       475
   7.500       416
   8.000       349
   8.500       327
   9.000       338
   9.500       302
  10.000       285
  10.500       243
  11.000       256
  11.500       240
  12.000       252
  12.500       240
  13.000       213
  13.500       234
  14.000       268
  14.500       268
  15.000       272
  15.500       320
  16.000       299
  16.500       327
  17.000       380
  17.500       396
  18.000       445
  18.500       488
  19.000       600
  19.500       707
  20.000       756
  20.500       864
  21.000       882
  21.500       852
  22.000       912
  22.500       924
  23.000       876
  23.500       882
  24.000       729
  24.500       756
  25.000       660
  25.500       620
  26.000       552
  26.500       547
  27.000       479
  27.500       428
  28.000       412
  28.500       392
  29.000       357
  29.500       313
  30.000       295
  30.500       262
  31.000       292
  31.500       272
  32.000       275
  32.500       268
  33.000       256
  33.500       219
  34.000       216
  34.500       219
  35.000       222
  35.500       216
  36.000       171
  36.500       193
  37.000       198
  37.500       176
  38.000       193
  38.500       184
  39.000       184
  39.500       193
  40.000       153
  40.500       153
  41.000       148
  41.500       136
  42.000       156
  42.500       158
  43.000       148
  43.500       141
  44.000       174
  44.500       179
  45.000       139
  45.500       158
  46.000       174
  46.500       179
  47.000       156
  47.500       176
  48.000       153
  48.500       146
  49.000       158
  49.500       166
  50.000       141
  50.500       163
  51.000       153
  51.500       161
  52.000       132
  52.500       146
  53.000       158
  53.500       136
  54.000       136
  54.500       158
  55.000       129
  55.500       139
  56.000       132
  56.500       129
  57.000       141
  57.500       141
  58.000       156
  58.500       144
  59.000       134
  59.500       148
  60.000       129
  60.500       141
  61.000       134
  61.500       144
  62.000       158
  62.500       132
  63.000       166
  63.500       129
  64.000       161
  64.500       125
  65.000       156
  65.500       129
  66.000       144
  66.500       151
  67.000       132
  67.500       134
  68.000       141
  68.500       114
  69.000       129
  69.500       148
  70.000       129
  70.500       116
  71.000       121
  71.500       123
  72.000       136
  72.500       116
  73.000       139
  73.500       134
  74.000       112
  74.500       139
  75.000       144
  75.500       125
  76.000       125
  76.500       141
  77.000       134
  77.500       129
  78.000       125
  78.500       146
  79.000       116
  79.500       125
  80.000       118
  80.500       127
  81.000       112
  81.500       106
  82.000       114
  82.500       129
  83.000       112
  83.500        90
  84.000        98
  84.500        79
  85.000        77
  85.500        92
  86.000        77
  86.500        84
  87.000        84
  87.500        68
  88.000        59
  88.500        70
  89.000        60
  89.500        70
  90.000        62
  90.500        65
  91.000        62
  91.500        51
  92.000        73
  92.500        60
  93.000        68
  93.500        60
  94.000        82
  94.500        56
  95.000        64
  95.500        54
  96.000        56
  96.500        64
  97.000        67
  97.500        70
  98.000        70
  98.500        70
  99.000        62
  99.500        70
 100.000        57
 100.500        75
 101.000        59
 101.500        77
 102.000        67
 102.500        72
 103.000        60
 103.500        65
 104.000        72
 104.500        75
 105.000        79
 105.500        67
 106.000        79
 106.500        64
 107.000        62
 107.500        57
 108.000        75
 108.500        53
 109.000        53
 109.500        68
 110.000        70
 110.500        56
 111.000        62
 111.500        62
 112.000        68
 112.500        62
 113.000        65
 113.500        73
 114.000        79
 114.500        59
 115.000        68
 115.500        65
 116.000        53
 116.500        57
 117.000        59
 117.500        70
 118.000        59
 118.500        51
 119.000        62
 119.500        50
 120.000        49
 120.500        56
 121.000        47
 121.500        56
 122.000        54
 122.500        53
 123.000        49
 123.500        62
 124.000        59
 124.500        50
 125.000        56
 125.500        67
 126.000        56
 126.500        62
 127.000        57
 127.500        47
 128.000        67
 128.500        56
 129.000        67
 129.500        59
 130.000        60
 130.500        57
 131.000        68
 131.500        65
 132.000        50
 132.500        54
 133.000        53
 133.500        59
 134.000        51
 134.500        65
 135.000        59
 135.500        59
 136.000        49
 136.500        51
 137.000        65
 137.500        60
 138.000        75
 138.500        68
 139.000        94
 139.500        70
 140.000        92
 140.500        59
 141.000        65
 141.500        70
 142.000        77
 142.500        72
 143.000        64
 143.500        62
 144.000        67
 144.500        68
 145.000        77
 145.500        82
 146.000        79
 146.500        75
 147.000        84
 147.500        65
 148.000        81
 148.500        84
 149.000        79
 149.500        86
 150.000        81