Folder: pyyuchen/data/XRD

File: BRUCITE.PRN
   5.000       198
   5.500       176
   6.000       139
   6.500       134
   7.000       114
   7.500       121
   8.000       129
   8.500       106
   9.000        84
   9.500        90
  10.000        98
  10.500        79
  11.000        88
  11.500        62
  12.000        86
  12.500        59
  13.000        62
  13.500        65
  14.000        77
  14.500        72
  15.000        75
  15.500        82
  16.000        65
  16.500        67
  17.000        82
  17.500       104
  18.000       466
  18.500     36557
  19.000       515
  19.500       121
  20.000        77
  20.500        70
  21.000        46
  21.500        50
  22.000        38
  22.500        39
  23.000        49
  23.500        47
  24.000        38
  24.500        49
  25.000        42
  25.500        50
  26.000        47
  26.500        32
  27.000        40
  27.500        70
  28.000        38
  28.500        47
  29.000        39
  29.500        38
  30.000        40
  30.500        46
  31.000        39
  31.500        53
  32.000        43
  32.500        57
  33.000        67
  33.500        43
  34.000        53
  34.500        43
  35.000        59
  35.500        57
  36.000        64
  36.500        70
  37.000        88
  37.500       302
  38.000     14065
  38.500       196
  39.000        90
  39.500        77
  40.000        53
  40.500        50
  41.000        64
  41.500        47
  42.000        56
  42.500        67
  43.000        57
  43.500        50
  44.000        51
  44.500        39
  45.000        65
  45.500        51
  46.000        62
  46.500        50
  47.000        51
  47.500        68
  48.000        53
  48.500        81
  49.000        79
  49.500        86
  50.000       132
  50.500       772
  51.000      3648
  51.500       121
  52.000        98
  52.500        79
  53.000        67
  53.500        57
  54.000        64
  54.500        56
  55.000        54
  55.500        49
  56.000        65
  56.500        59
  57.000        44
  57.500        65
  58.000       190
  58.500      1346
  59.000       114
  59.500        65
  60.000        56
  60.500        53
  61.000        62
  61.500        75
  62.000      1190
  62.500        82
  63.000        50
  63.500        50
  64.000        53
  64.500        59
  65.000        62
  65.500        47
  66.000        62
  66.500        68
  67.000        62
  67.500       102
  68.000       806
  68.500      1062
  69.000        96
  69.500        54
  70.000        56
  70.500        53
  71.000        64
  71.500        59
  72.000       841
  72.500        62
  73.000        57
  73.500        43
  74.000        38
  74.500        38
  75.000        47
  75.500        43
  76.000        56
  76.500        34
  77.000        34
  77.500        47
  78.000        50
  78.500        59
  79.000        43
  79.500        56
  80.000        72
  80.500       457
  81.000       295
  81.500       364
  82.000        53
  82.500        49
  83.000        51
  83.500        38
  84.000        32
  84.500        36
  85.000        42
  85.500        37
  86.000        43
  86.500        37
  87.000        98
  87.500        56
  88.000        42
  88.500        43
  89.000        54
  89.500       234
  90.000       213
  90.500        47
  91.000        49
  91.500        42
  92.000        43
  92.500        40
  93.000        43
  93.500        25
  94.000        39
  94.500        43
  95.000        34
  95.500        43
  96.000       207
  96.500       306
  97.000        79
  97.500        53
  98.000        56
  98.500        24
  99.000        56
  99.500       136
 100.000       237
 100.500        72
 101.000        53
 101.500        51
 102.000        50
 102.500        43
 103.000        46
 103.500        47
 104.000        40
 104.500        38
 105.000        47
 105.500        44
 106.000        40
 106.500        51
 107.000        70
 107.500       171
 108.000       313
 108.500       392
 109.000       542
 109.500       320
 110.000        72
 110.500        46
 111.000        46
 111.500        42
 112.000        47
 112.500        38
 113.000        47
 113.500        40
 114.000        53
 114.500        38
 115.000        47
 115.500        56
 116.000       246
 116.500       125
 117.000        56
 117.500       144
 118.000       156
 118.500       123
 119.000        94
 119.500       129
 120.000        72
 120.500        56
 121.000        42
 121.500        44
 122.000        49
 122.500        38
 123.000        47
 123.500        49
 124.000        56
 124.500        57
 125.000        56
 125.500       102
 126.000       416
 126.500       249
 127.000        92
 127.500        53
 128.000        43
 128.500        39
 129.000        33
 129.500        50
 130.000        46
 130.500        42
 131.000        40
 131.500        47
 132.000        32
 132.500        51
 133.000        43
 133.500        39
 134.000        50
 134.500        50
 135.000        44
 135.500        50
 136.000        59
 136.500        50
 137.000        53
 137.500        43
 138.000        49
 138.500        43
 139.000        53
 139.500        49
 140.000        62
 140.500        72
 141.000       129
 141.500       420
 142.000       292
 142.500       237
 143.000       106
 143.500        70
 144.000        64
 144.500        46
 145.000        56
 145.500        49
 146.000        47
 146.500        50
 147.000        49
 147.500        44
 148.000        51
 148.500        54
 149.000        38
 149.500        56
 150.000        44

File: CPD-1A.PRN
   5.000       153
   5.500       127
   6.000       116
   6.500       106
   7.000       100
   7.500        98
   8.000        92
   8.500       100
   9.000        75
   9.500        72
  10.000        53
  10.500        56
  11.000        62
  11.500        54
  12.000        47
  12.500        50
  13.000        43
  13.500        43
  14.000        50
  14.500        43
  15.000        36
  15.500        39
  16.000        30
  16.500        36
  17.000        32
  17.500        25
  18.000        28
  18.500        30
  19.000        26
  19.500        28
  20.000        16
  20.500        44
  21.000        19
  21.500        28
  22.000        12
  22.500        21
  23.000        26
  23.500        19
  24.000        27
  24.500        13
  25.000        22
  25.500        47
  26.000        21
  26.500        25
  27.000        19
  27.500        33
  28.000       234
  28.500       262
  29.000        32
  29.500        13
  30.000        19
  30.500        19
  31.000        15
  31.500        21
  32.000        38
  32.500        16
  33.000        25
  33.500        16
  34.000        21
  34.500       144
  35.000        24
  35.500        17
  36.000        32
  36.500        43
  37.000        27
  37.500        20
  38.000        13
  38.500        15
  39.000        10
  39.500        15
  40.000         2
  40.500        13
  41.000        15
  41.500        12
  42.000        20
  42.500        12
  43.000        20
  43.500        33
  44.000        16
  44.500        20
  45.000        32
  45.500        32
  46.000        38
  46.500       102
  47.000     10020
  47.500       184
  48.000        37
  48.500        23
  49.000        21
  49.500        25
  50.000        29
  50.500        19
  51.000        12
  51.500        22
  52.000        15
  52.500        25
  53.000        12
  53.500        24
  54.000        13
  54.500        30
  55.000        29
  55.500       136
  56.000       428
  56.500        64
  57.000        29
  57.500        50
  58.000        13
  58.500        40
  59.000        20
  59.500        16
  60.000        16
  60.500        12
  61.000        13
  61.500        10
  62.000        16
  62.500        21
  63.000        73
  63.500        12
  64.000        20
  64.500        12
  65.000        15
  65.500        12
  66.000        12
  66.500        36
  67.000        20
  67.500        13
  68.000       114
  68.500        98
  69.000        90
  69.500        20
  70.000        12
  70.500        17
  71.000        12
  71.500        10
  72.000        16
  72.500        20
  73.000        15
  73.500        22
  74.000        15
  74.500        21
  75.000        21
  75.500        47
  76.000       338
  76.500        17
  77.000        34
  77.500        13
  78.000        16
  78.500        22
  79.000        19
  79.500        17
  80.000        13
  80.500        12
  81.000        12
  81.500        16
  82.000        13
  82.500        26
  83.000        19
  83.500        16
  84.000        16
  84.500        16
  85.000        15
  85.500        16
  86.000        21
  86.500        26
  87.000        65
  87.500       542
  88.000        37
  88.500        29
  89.000        21
  89.500        17
  90.000        24
  90.500        16
  91.000         9
  91.500        12
  92.000        24
  92.500        16
  93.000        24
  93.500        12
  94.000        67
  94.500       265
  95.000        17
  95.500        27
  96.000        10
  96.500        12
  97.000        16
  97.500        13
  98.000        10
  98.500        19
  99.000        27
  99.500        16
 100.000        16
 100.500        10
 101.000        12
 101.500         9
 102.000        13
 102.500        15
 103.000        33
 103.500        12
 104.000        16
 104.500        30
 105.000        15
 105.500        38
 106.000       100
 106.500        19
 107.000        19
 107.500        21
 108.000        10
 108.500        16
 109.000        21
 109.500        10
 110.000        16
 110.500        26
 111.000        23
 111.500        19
 112.000        28
 112.500        32
 113.000       470
 113.500       289
 114.000        22
 114.500        15
 115.000        16
 115.500        65
 116.000        28
 116.500        20
 117.000        22
 117.500        15
 118.000        12
 118.500        12
 119.000        15
 119.500        13
 120.000        10
 120.500        20
 121.000         6
 121.500        16
 122.000        26
 122.500        13
 123.000        12
 123.500        12
 124.000        21
 124.500        16
 125.000        17
 125.500        32
 126.000       174
 126.500       121
 127.000        88
 127.500        28
 128.000        21
 128.500        10
 129.000        23
 129.500        20
 130.000        15
 130.500        23
 131.000        21
 131.500        16
 132.000        16
 132.500        16
 133.000        13
 133.500        21
 134.000        42
 134.500        24
 135.000        70
 135.500        84
 136.000       127
 136.500        23
 137.000        20
 137.500        19
 138.000        21
 138.500        62
 139.000        23
 139.500        31
 140.000        13
 140.500         9
 141.000        13
 141.500        17
 142.000        23
 142.500        30
 143.000        26
 143.500        24
 144.000        20
 144.500        16
 145.000        10
 145.500        17
 146.000        10
 146.500        16
 147.000        16
 147.500        22
 148.000        20
 148.500        12
 149.000        21
 149.500        16
 150.000        21

File: CPD-1B.PRN
   5.000       184
   5.500       156
   6.000       123
   6.500       129
   7.000        96
   7.500        90
   8.000        90
   8.500        92
   9.000        88
   9.500        70
  10.000        72
  10.500        72
  11.000        56
  11.500        67
  12.000        59
  12.500        62
  13.000        47
  13.500        49
  14.000        50
  14.500        53
  15.000        43
  15.500        50
  16.000        42
  16.500        34
  17.000        31
  17.500        27
  18.000        43
  18.500        34
  19.000        32
  19.500        28
  20.000        40
  20.500        37
  21.000        30
  21.500        32
  22.000        31
  22.500        29
  23.000        38
  23.500        31
  24.000        27
  24.500        46
  25.000        54
  25.500      3025
  26.000        47
  26.500        44
  27.000        46
  27.500        38
  28.000        84
  28.500        62
  29.000        24
  29.500        29
  30.000        20
  30.500        17
  31.000        23
  31.500        50
  32.000        33
  32.500        20
  33.000        34
  33.500        34
  34.000        40
  34.500       163
  35.000      1722
  35.500       123
  36.000        65
  36.500        60
  37.000        37
  37.500       158
  38.000       125
  38.500        29
  39.000        38
  39.500        22
  40.000        31
  40.500        16
  41.000        26
  41.500        42
  42.000        36
  42.500        56
  43.000       219
  43.500      1482
  44.000        50
  44.500        36
  45.000        27
  45.500        33
  46.000        54
  46.500        46
  47.000       942
  47.500       134
  48.000        27
  48.500        10
  49.000        30
  49.500        16
  50.000        29
  50.500        25
  51.000        38
  51.500        32
  52.000        38
  52.500      2510
  53.000        56
  53.500        44
  54.000        31
  54.500        25
  55.000        24
  55.500        51
  56.000        60
  56.500       104
  57.000       123
  57.500      4844
  58.000        81
  58.500        39
  59.000        33
  59.500        50
  60.000        38
  60.500        29
  61.000       125
  61.500       182
  62.000        32
  62.500        28
  63.000        77
  63.500        23
  64.000        21
  64.500        25
  65.000        32
  65.500        32
  66.000        49
  66.500      1918
  67.000        56
  67.500        50
  68.000       529
  68.500       342
  69.000        86
  69.500        38
  70.000        23
  70.500        64
  71.000        25
  71.500        33
  72.000        25
  72.500        28
  73.000        16
  73.500        24
  74.000        37
  74.500        65
  75.000        16
  75.500        23
  76.000        72
  76.500        75
  77.000       497
  77.500       161
  78.000        32
  78.500        26
  79.000        22
  79.500        30
  80.000        29
  80.500        92
  81.000        94
  81.500        20
  82.000        30
  82.500        13
  83.000        33
  83.500        31
  84.000        42
  84.500       106
  85.000        24
  85.500        16
  86.000        30
  86.500       204
  87.000        34
  87.500        51
  88.000        29
  88.500        30
  89.000       349
  89.500        65
  90.000        29
  90.500        44
  91.000       184
  91.500       184
  92.000        12
  92.500        23
  93.000        16
  93.500        24
  94.000        36
  94.500        51
  95.000       139
  95.500       400
  96.000        38
  96.500        26
  97.000        25
  97.500        15
  98.000        21
  98.500        50
  99.000        23
  99.500        23
 100.000        28
 100.500        38
 101.000       441
 101.500       187
 102.000        19
 102.500        28
 103.000        38
 103.500        46
 104.000        29
 104.500        32
 105.000        29
 105.500        32
 106.000        38
 106.500        20
 107.000        16
 107.500        20
 108.000        24
 108.500        13
 109.000        20
 109.500        37
 110.000        40
 110.500        29
 111.000       153
 111.500        59
 112.000        24
 112.500        25
 113.000        73
 113.500        43
 114.000       134
 114.500        81
 115.000        29
 115.500        42
 116.000       349
 116.500       368
 117.000       129
 117.500        51
 118.000       112
 118.500        64
 119.000        22
 119.500        24
 120.000        39
 120.500        24
 121.000        21
 121.500        39
 122.000       187
 122.500       118
 123.000        22
 123.500        27
 124.000        31
 124.500        82
 125.000        57
 125.500        36
 126.000        67
 126.500        47
 127.000        43
 127.500       201
 128.000       132
 128.500        86
 129.000        28
 129.500        49
 130.000       153
 130.500       134
 131.000       182
 131.500        82
 132.000        64
 132.500        47
 133.000        36
 133.500        32
 134.000        47
 134.500        28
 135.000        51
 135.500        75
 136.000       686
 136.500       153
 137.000       171
 137.500        36
 138.000        36
 138.500        47
 139.000        34
 139.500        32
 140.000        32
 140.500        30
 141.000        47
 141.500        28
 142.000        54
 142.500        94
 143.000        67
 143.500        42
 144.000        34
 144.500        42
 145.000       156
 145.500       114
 146.000       153
 146.500        62
 147.000        26
 147.500        32
 148.000        42
 148.500        68
 149.000       136
 149.500       144
 150.000       353

File: CPD-1C.PRN
   5.000       169
   5.500       184
   6.000       125
   6.500       146
   7.000       129
   7.500       125
   8.000        81
   8.500        86
   9.000       102
   9.500        72
  10.000        90
  10.500        79
  11.000        75
  11.500        62
  12.000        72
  12.500        68
  13.000        92
  13.500        59
  14.000        59
  14.500        56
  15.000        59
  15.500        62
  16.000        67
  16.500        47
  17.000        62
  17.500        43
  18.000        59
  18.500        59
  19.000        40
  19.500        50
  20.000        47
  20.500        70
  21.000        36
  21.500        54
  22.000        50
  22.500        34
  23.000        46
  23.500        40
  24.000        53
  24.500        37
  25.000        42
  25.500       127
  26.000        39
  26.500        47
  27.000        56
  27.500        43
  28.000        53
  28.500        54
  29.000        40
  29.500        67
  30.000        57
  30.500        62
  31.000       123
  31.500       542
  32.000       734
  32.500       106
  33.000       112
  33.500        90
  34.000       161
  34.500      6674
  35.000       187
  35.500       182
  36.000       918
  36.500      1115
  37.000       141
  37.500        79
  38.000        82
  38.500        62
  39.000        65
  39.500        49
  40.000        53
  40.500        56
  41.000        39
  41.500        56
  42.000        43
  42.500        49
  43.000        50
  43.500       148
  44.000        40
  44.500        44
  45.000        32
  45.500        59
  46.000        53
  46.500        57
  47.000       342
  47.500      3576
  48.000       118
  48.500        53
  49.000        54
  49.500        56
  50.000        56
  50.500        43
  51.000        60
  51.500        59
  52.000        47
  52.500       129
  53.000        62
  53.500        54
  54.000        47
  54.500        53
  55.000        75
  55.500        77
  56.000       121
  56.500      2106
  57.000       231
  57.500       299
  58.000        64
  58.500        53
  59.000        60
  59.500        59
  60.000        62
  60.500        56
  61.000        59
  61.500        75
  62.000       112
  62.500       231
  63.000      2937
  63.500        98
  64.000        86
  64.500        75
  65.000        53
  65.500        67
  66.000        90
  66.500       556
  67.000        96
  67.500       148
  68.000      4316
  68.500       198
  69.000       882
  69.500       141
  70.000        72
  70.500        65
  71.000        56
  71.500        56
  72.000        47
  72.500       210
  73.000        67
  73.500        49
  74.000        53
  74.500        43
  75.000        42
  75.500        42
  76.000        44
  76.500        53
  77.000       823
  77.500        65
  78.000        51
  78.500        47
  79.000        38
  79.500        42
  80.000        49
  80.500        37
  81.000        65
  81.500       201
  82.000        50
  82.500        42
  83.000        46
  83.500        38
  84.000        47
  84.500        43
  85.000        40
  85.500        44
  86.000        39
  86.500        59
  87.000        50
  87.500        64
  88.000        62
  88.500        53
  89.000        72
  89.500       436
  90.000       372
  90.500        50
  91.000        62
  91.500        54
  92.000        68
  92.500        68
  93.000       176
  93.500        59
  94.000        56
  94.500        57
  95.000       132
  95.500       412
  96.000        88
  96.500        57
  97.000        62
  97.500        50
  98.000        59
  98.500       234
  99.000       441
  99.500        57
 100.000        50
 100.500        53
 101.000        56
 101.500        57
 102.000        53
 102.500        65
 103.000       571
 103.500       125
 104.000       265
 104.500       566
 105.000        64
 105.500        53
 106.000        56
 106.500        50
 107.000        56
 107.500       216
 108.000        54
 108.500        59
 109.000        56
 109.500        62
 110.000        88
 110.500       392
 111.000       134
 111.500        62
 112.000        50
 112.500        60
 113.000        77
 113.500        67
 114.000        64
 114.500        53
 115.000        62
 115.500        90
 116.000       187
 116.500       368
 117.000       134
 117.500        54
 118.000        62
 118.500        56
 119.000        56
 119.500        57
 120.000        51
 120.500        47
 121.000        67
 121.500       566
 122.000       327
 122.500        70
 123.000        67
 123.500        40
 124.000        53
 124.500        53
 125.000        90
 125.500        67
 126.000        70
 126.500        47
 127.000        56
 127.500        57
 128.000        64
 128.500        54
 129.000        40
 129.500        54
 130.000        59
 130.500        44
 131.000        59
 131.500        59
 132.000        56
 132.500        59
 133.000        70
 133.500        84
 134.000       823
 134.500       228
 135.000       102
 135.500        72
 136.000        86
 136.500       196
 137.000        82
 137.500        82
 138.000        65
 138.500       292
 139.000        94
 139.500       121
 140.000        47
 140.500        59
 141.000        65
 141.500        67
 142.000        72
 142.500       100
 143.000       660
 143.500       110
 144.000       198
 144.500        75
 145.000        64
 145.500        72
 146.000        79
 146.500        79
 147.000        62
 147.500        49
 148.000        62
 148.500        53
 149.000        67
 149.500        67
 150.000        79